"","X","SubjectID","ExperimentName","Session","Age","Handedness","Sex","CRESP","List2","PairCode","Sound1","Sound2","PWType","WordType","zMFCC","Condition","RESP","Trial","RT","ACC","SyllPos","TrialType","c_Trial"
"1",1,"Base_Test1_204","Test1",2,24,"right","female","5","17","Word vs Med FW","gopibu.wav","golabu.wav",NA,1,1.10108532403706,"Familiar",5,1,1338,1,"Medial","Word vs FW",-27.5809554551323
"2",2,"Base_Test1_204","Test1",2,24,"right","female","1","22","Word vs Med FW","bidaku.wav","bipiku.wav",NA,2,1.14212436080289,"Familiar",1,2,996,1,"Medial","Word vs FW",-26.5809554551323
"3",3,"Base_Test1_204","Test1",2,24,"right","female","1","51","PW vs Fin FW","pirogo.wav","tupiti.wav",2,3,1.35174727276499,"Familiar",1,3,1583,1,"Final","PW vs FW",-25.5809554551323
"4",4,"Base_Test1_204","Test1",2,24,"right","female","1","49","PW vs Fin FW","labupa.wav","golati.wav",2,1,0.296611514613159,"Familiar",1,4,1112,1,"Final","PW vs FW",-24.5809554551323
"5",5,"Base_Test1_204","Test1",2,24,"right","female","5","12","Word vs In FW","godoti.wav","padoti.wav",NA,4,-0.355968481618047,"Familiar",5,5,1110,1,"Initial","Word vs FW",-23.5809554551323
"6",6,"Base_Test1_204","Test1",2,24,"right","female","5","28","Word vs Fin FW","padobu.wav","padoti.wav",NA,4,0.296611514613159,"Familiar",5,6,1068,1,"Final","Word vs FW",-22.5809554551323
"7",7,"Base_Test1_204","Test1",2,24,"right","female","1","8","Word vs PW","padoti.wav","kupado.wav",1,4,NA,"Familiar",1,7,1602,1,NA,"Word vs PW",-21.5809554551323
"8",8,"Base_Test1_204","Test1",2,24,"right","female","1","29","Word vs Fin FW","golabu.wav","golaku.wav",NA,1,-1.34526988854491,"Familiar",1,8,1131,1,"Final","Word vs FW",-20.5809554551323
"9",9,"Base_Test1_204","Test1",2,24,"right","female","5","18","Word vs Med FW","bilaku.wav","bidaku.wav",NA,2,-1.60739314711274,"Familiar",1,9,1726,0,"Medial","Word vs FW",-19.5809554551323
"10",10,"Base_Test1_204","Test1",2,24,"right","female","5","19","Word vs Med FW","tularo.wav","tupiro.wav",NA,3,1.10108532403706,"Familiar",1,10,1313,0,"Medial","Word vs FW",-18.5809554551323
"11",11,"Base_Test1_204","Test1",2,24,"right","female","1","13","Word vs In FW","golabu.wav","bilabu.wav",NA,1,0.781961875630439,"Familiar",1,11,817,1,"Initial","Word vs FW",-17.5809554551323
"12",12,"Base_Test1_204","Test1",2,24,"right","female","5","53","PW vs Fin FW","golaku.wav","kugola.wav",1,1,-1.34526988854491,"Familiar",5,12,1946,1,"Final","PW vs FW",-16.5809554551323
"13",13,"Base_Test1_204","Test1",2,24,"right","female","1","32","Word vs Fin FW","padoti.wav","padoro.wav",NA,4,1.35174727276499,"Familiar",1,13,2208,1,"Final","Word vs FW",-15.5809554551323
"14",14,"Base_Test1_204","Test1",2,24,"right","female","5","45","PW vs Med FW","godabu.wav","kugola.wav",1,1,-1.60739314711274,"Familiar",5,14,1222,1,"Medial","PW vs FW",-14.5809554551323
"15",15,"Base_Test1_204","Test1",2,24,"right","female","1","35","PW vs In FW","piropa.wav","gopiro.wav",2,3,-0.275458580478951,"Familiar",5,15,2182,0,"Initial","PW vs FW",-13.5809554551323
"16",16,"Base_Test1_204","Test1",2,24,"right","female","1","5","Word vs PW","golabu.wav","rogola.wav",1,1,NA,"Familiar",1,16,1144,1,NA,"Word vs PW",-12.5809554551323
"17",17,"Base_Test1_204","Test1",2,24,"right","female","5","1","Word vs PW","labubi.wav","golabu.wav",2,1,NA,"Familiar",5,17,1149,1,NA,"Word vs PW",-11.5809554551323
"18",18,"Base_Test1_204","Test1",2,24,"right","female","1","6","Word vs PW","bidaku.wav","bubida.wav",1,2,NA,"Familiar",1,18,1323,1,NA,"Word vs PW",-10.5809554551323
"19",19,"Base_Test1_204","Test1",2,24,"right","female","1","41","PW vs Med FW","labupa.wav","gopibu.wav",2,1,1.10108532403706,"Familiar",1,19,895,1,"Medial","PW vs FW",-9.58095545513234
"20",20,"Base_Test1_204","Test1",2,24,"right","female","1","42","PW vs Med FW","dakutu.wav","bilaku.wav",2,2,-1.60739314711274,"Familiar",1,20,1143,1,"Medial","PW vs FW",-8.58095545513234
"21",21,"Base_Test1_204","Test1",2,24,"right","female","5","25","Word vs Fin FW","golati.wav","golabu.wav",NA,1,0.296611514613159,"Familiar",5,21,892,1,"Final","Word vs FW",-7.58095545513234
"22",22,"Base_Test1_204","Test1",2,24,"right","female","5","48","PW vs Med FW","padati.wav","ropado.wav",1,4,-1.38984163125101,"Familiar",1,22,1295,0,"Medial","PW vs FW",-6.58095545513234
"23",23,"Base_Test1_204","Test1",2,24,"right","female","5","40","PW vs In FW","tudoti.wav","kupado.wav",1,4,1.07074586855259,"Familiar",5,23,950,1,"Initial","PW vs FW",-5.58095545513234
"24",24,"Base_Test1_204","Test1",2,24,"right","female","5","11","Word vs In FW","gopiro.wav","tupiro.wav",NA,3,-0.275458580478951,"Familiar",5,24,1221,1,"Initial","Word vs FW",-4.58095545513234
"25",25,"Base_Test1_204","Test1",2,24,"right","female","5","38","PW vs In FW","tudaku.wav","bubida.wav",1,2,-0.266109272601177,"Familiar",1,25,997,0,"Initial","PW vs FW",-3.58095545513234
"26",26,"Base_Test1_204","Test1",2,24,"right","female","5","46","PW vs Med FW","bipiku.wav","robida.wav",1,2,1.14212436080289,"Familiar",5,26,1175,1,"Medial","PW vs FW",-2.58095545513234
"27",27,"Base_Test1_204","Test1",2,24,"right","female","1","43","PW vs Med FW","pirogo.wav","tularo.wav",2,3,1.10108532403706,"Familiar",1,27,1198,1,"Medial","PW vs FW",-1.58095545513234
"28",28,"Base_Test1_204","Test1",2,24,"right","female","5","55","PW vs Fin FW","tupiku.wav","butupi.wav",1,3,-0.257955755918198,"Familiar",1,28,1102,0,"Final","PW vs FW",-0.580955455132344
"29",29,"Base_Test1_204","Test1",2,24,"right","female","1","44","PW vs Med FW","dotigo.wav","papiti.wav",2,4,0.291753243007115,"Familiar",1,29,1538,1,"Medial","PW vs FW",0.419044544867656
"30",30,"Base_Test1_204","Test1",2,24,"right","female","1","52","PW vs Fin FW","dotigo.wav","padobu.wav",2,4,0.296611514613159,"Familiar",1,30,1088,1,"Final","PW vs FW",1.41904454486766
"31",31,"Base_Test1_204","Test1",2,24,"right","female","5","10","Word vs In FW","godaku.wav","bidaku.wav",NA,2,0.781961875630439,"Familiar",1,31,830,0,"Initial","Word vs FW",2.41904454486766
"32",32,"Base_Test1_204","Test1",2,24,"right","female","5","56","PW vs Fin FW","padoro.wav","ropado.wav",1,4,1.35174727276499,"Familiar",1,32,1626,0,"Final","PW vs FW",3.41904454486766
"33",33,"Base_Test1_204","Test1",2,24,"right","female","1","36","PW vs In FW","dotitu.wav","godoti.wav",2,4,-0.355968481618047,"Familiar",1,33,1197,1,"Initial","PW vs FW",4.41904454486766
"34",34,"Base_Test1_204","Test1",2,24,"right","female","1","15","Word vs In FW","tupiro.wav","papiro.wav",NA,3,1.07074586855259,"Familiar",1,34,1667,1,"Initial","Word vs FW",5.41904454486766
"35",35,"Base_Test1_204","Test1",2,24,"right","female","1","14","Word vs In FW","bidaku.wav","tudaku.wav",NA,2,-0.266109272601177,"Familiar",5,35,907,0,"Initial","Word vs FW",6.41904454486766
"36",36,"Base_Test1_204","Test1",2,24,"right","female","5","54","PW vs Fin FW","bidabu.wav","robida.wav",1,2,-1.34526988854491,"Familiar",5,36,1868,1,"Final","PW vs FW",7.41904454486766
"37",37,"Base_Test1_204","Test1",2,24,"right","female","5","9","Word vs In FW","tulabu.wav","golabu.wav",NA,1,-0.275458580478951,"Familiar",5,37,1205,1,"Initial","Word vs FW",8.41904454486766
"38",38,"Base_Test1_204","Test1",2,24,"right","female","5","26","Word vs Fin FW","bidaro.wav","bidaku.wav",NA,2,-0.257955755918198,"Familiar",5,38,1480,1,"Final","Word vs FW",9.41904454486766
"39",39,"Base_Test1_204","Test1",2,24,"right","female","1","16","Word vs In FW","padoti.wav","tudoti.wav",NA,4,1.07074586855259,"Familiar",1,39,971,1,"Initial","Word vs FW",10.4190445448677
"40",40,"Base_Test1_204","Test1",2,24,"right","female","1","30","Word vs Fin FW","bidaku.wav","bidabu.wav",NA,2,-1.34526988854491,"Familiar",1,40,1586,1,"Final","Word vs FW",11.4190445448677
"41",41,"Base_Test1_204","Test1",2,24,"right","female","1","24","Word vs Med FW","padoti.wav","padati.wav",NA,4,-1.38984163125101,"Familiar",1,41,1052,1,"Medial","Word vs FW",12.4190445448677
"42",42,"Base_Test1_204","Test1",2,24,"right","female","1","21","Word vs Med FW","golabu.wav","godabu.wav",NA,1,-1.60739314711274,"Familiar",5,42,1215,0,"Medial","Word vs FW",13.4190445448677
"43",43,"Base_Test1_204","Test1",2,24,"right","female","1","7","Word vs PW","tupiro.wav","titupi.wav",1,3,NA,"Familiar",1,43,1019,1,NA,"Word vs PW",14.4190445448677
"44",44,"Base_Test1_204","Test1",2,24,"right","female","5","20","Word vs Med FW","papiti.wav","padoti.wav",NA,4,0.291753243007115,"Familiar",1,44,1228,0,"Medial","Word vs FW",15.4190445448677
"45",45,"Base_Test1_204","Test1",2,24,"right","female","5","4","Word vs PW","dotitu.wav","padoti.wav",2,4,NA,"Familiar",5,45,981,1,NA,"Word vs PW",16.4190445448677
"46",46,"Base_Test1_204","Test1",2,24,"right","female","5","3","Word vs PW","piropa.wav","tupiro.wav",2,3,NA,"Familiar",5,46,916,1,NA,"Word vs PW",17.4190445448677
"47",47,"Base_Test1_204","Test1",2,24,"right","female","5","2","Word vs PW","dakugo.wav","bidaku.wav",2,2,NA,"Familiar",5,47,1038,1,NA,"Word vs PW",18.4190445448677
"48",48,"Base_Test1_204","Test1",2,24,"right","female","1","23","Word vs Med FW","tupiro.wav","tudoro.wav",NA,3,0.291753243007115,"Familiar",1,48,1263,1,"Medial","Word vs FW",19.4190445448677
"49",49,"Base_Test1_204","Test1",2,24,"right","female","5","47","PW vs Med FW","tudoro.wav","butupi.wav",1,3,0.291753243007115,"Familiar",5,49,964,1,"Medial","PW vs FW",20.4190445448677
"50",50,"Base_Test1_204","Test1",2,24,"right","female","5","39","PW vs In FW","papiro.wav","titupi.wav",1,3,1.07074586855259,"Familiar",1,50,1034,0,"Initial","PW vs FW",21.4190445448677
"51",51,"Base_Test1_204","Test1",2,24,"right","female","5","27","Word vs Fin FW","tupiti.wav","tupiro.wav",NA,3,1.35174727276499,"Familiar",1,51,1064,0,"Final","Word vs FW",22.4190445448677
"52",52,"Base_Test1_204","Test1",2,24,"right","female","1","33","PW vs In FW","labubi.wav","tulabu.wav",2,1,-0.275458580478951,"Familiar",5,52,872,0,"Initial","PW vs FW",23.4190445448677
"53",53,"Base_Test1_204","Test1",2,24,"right","female","5","37","PW vs In FW","bilabu.wav","rogola.wav",1,1,0.781961875630439,"Familiar",1,53,922,0,"Initial","PW vs FW",24.4190445448677
"54",54,"Base_Test1_204","Test1",2,24,"right","female","1","50","PW vs Fin FW","dakutu.wav","bidaro.wav",2,2,-0.257955755918198,"Familiar",1,54,926,1,"Final","PW vs FW",25.4190445448677
"55",55,"Base_Test1_204","Test1",2,24,"right","female","1","34","PW vs In FW","dakugo.wav","godaku.wav",2,2,0.781961875630439,"Familiar",5,55,956,0,"Initial","PW vs FW",26.4190445448677
"56",56,"Base_Test1_204","Test1",2,24,"right","female","1","31","Word vs Fin FW","tupiro.wav","tupiku.wav",NA,3,-0.257955755918198,"Familiar",1,56,1191,1,"Final","Word vs FW",27.4190445448677
"57",57,"Base_Test1_205","Test1",1,20,"right","female","1","8","Word vs PW","padoti.wav","kupado.wav",1,4,NA,"Familiar",1,1,1918,1,NA,"Word vs PW",-27.5809554551323
"58",58,"Base_Test1_205","Test1",1,20,"right","female","1","15","Word vs In FW","tupiro.wav","papiro.wav",NA,3,1.07074586855259,"Familiar",1,2,1897,1,"Initial","Word vs FW",-26.5809554551323
"59",59,"Base_Test1_205","Test1",1,20,"right","female","5","11","Word vs In FW","gopiro.wav","tupiro.wav",NA,3,-0.275458580478951,"Familiar",5,3,1604,1,"Initial","Word vs FW",-25.5809554551323
"60",60,"Base_Test1_205","Test1",1,20,"right","female","1","42","PW vs Med FW","dakutu.wav","bilaku.wav",2,2,-1.60739314711274,"Familiar",1,4,1187,1,"Medial","PW vs FW",-24.5809554551323
"61",61,"Base_Test1_205","Test1",1,20,"right","female","1","34","PW vs In FW","dakugo.wav","godaku.wav",2,2,0.781961875630439,"Familiar",5,5,1843,0,"Initial","PW vs FW",-23.5809554551323
"62",62,"Base_Test1_205","Test1",1,20,"right","female","1","51","PW vs Fin FW","pirogo.wav","tupiti.wav",2,3,1.35174727276499,"Familiar",1,6,1470,1,"Final","PW vs FW",-22.5809554551323
"63",63,"Base_Test1_205","Test1",1,20,"right","female","1","14","Word vs In FW","bidaku.wav","tudaku.wav",NA,2,-0.266109272601177,"Familiar",1,7,1366,1,"Initial","Word vs FW",-21.5809554551323
"64",64,"Base_Test1_205","Test1",1,20,"right","female","5","56","PW vs Fin FW","padoro.wav","ropado.wav",1,4,1.35174727276499,"Familiar",1,8,1658,0,"Final","PW vs FW",-20.5809554551323
"65",65,"Base_Test1_205","Test1",1,20,"right","female","1","49","PW vs Fin FW","labupa.wav","golati.wav",2,1,0.296611514613159,"Familiar",5,9,1404,0,"Final","PW vs FW",-19.5809554551323
"66",66,"Base_Test1_205","Test1",1,20,"right","female","1","41","PW vs Med FW","labupa.wav","gopibu.wav",2,1,1.10108532403706,"Familiar",5,10,1038,0,"Medial","PW vs FW",-18.5809554551323
"67",67,"Base_Test1_205","Test1",1,20,"right","female","5","55","PW vs Fin FW","tupiku.wav","butupi.wav",1,3,-0.257955755918198,"Familiar",1,11,1099,0,"Final","PW vs FW",-17.5809554551323
"68",68,"Base_Test1_205","Test1",1,20,"right","female","1","43","PW vs Med FW","pirogo.wav","tularo.wav",2,3,1.10108532403706,"Familiar",1,12,951,1,"Medial","PW vs FW",-16.5809554551323
"69",69,"Base_Test1_205","Test1",1,20,"right","female","5","3","Word vs PW","piropa.wav","tupiro.wav",2,3,NA,"Familiar",5,13,1014,1,NA,"Word vs PW",-15.5809554551323
"70",70,"Base_Test1_205","Test1",1,20,"right","female","1","7","Word vs PW","tupiro.wav","titupi.wav",1,3,NA,"Familiar",1,14,989,1,NA,"Word vs PW",-14.5809554551323
"71",71,"Base_Test1_205","Test1",1,20,"right","female","1","44","PW vs Med FW","dotigo.wav","papiti.wav",2,4,0.291753243007115,"Familiar",1,15,1039,1,"Medial","PW vs FW",-13.5809554551323
"72",72,"Base_Test1_205","Test1",1,20,"right","female","5","18","Word vs Med FW","bilaku.wav","bidaku.wav",NA,2,-1.60739314711274,"Familiar",1,16,1247,0,"Medial","Word vs FW",-12.5809554551323
"73",73,"Base_Test1_205","Test1",1,20,"right","female","1","21","Word vs Med FW","golabu.wav","godabu.wav",NA,1,-1.60739314711274,"Familiar",1,17,1478,1,"Medial","Word vs FW",-11.5809554551323
"74",74,"Base_Test1_205","Test1",1,20,"right","female","1","36","PW vs In FW","dotitu.wav","godoti.wav",2,4,-0.355968481618047,"Familiar",1,18,1165,1,"Initial","PW vs FW",-10.5809554551323
"75",75,"Base_Test1_205","Test1",1,20,"right","female","5","25","Word vs Fin FW","golati.wav","golabu.wav",NA,1,0.296611514613159,"Familiar",5,19,1416,1,"Final","Word vs FW",-9.58095545513234
"76",76,"Base_Test1_205","Test1",1,20,"right","female","1","30","Word vs Fin FW","bidaku.wav","bidabu.wav",NA,2,-1.34526988854491,"Familiar",1,20,1293,1,"Final","Word vs FW",-8.58095545513234
"77",77,"Base_Test1_205","Test1",1,20,"right","female","1","32","Word vs Fin FW","padoti.wav","padoro.wav",NA,4,1.35174727276499,"Familiar",1,21,1539,1,"Final","Word vs FW",-7.58095545513234
"78",78,"Base_Test1_205","Test1",1,20,"right","female","1","31","Word vs Fin FW","tupiro.wav","tupiku.wav",NA,3,-0.257955755918198,"Familiar",1,22,1206,1,"Final","Word vs FW",-6.58095545513234
"79",79,"Base_Test1_205","Test1",1,20,"right","female","1","13","Word vs In FW","golabu.wav","bilabu.wav",NA,1,0.781961875630439,"Familiar",1,23,1273,1,"Initial","Word vs FW",-5.58095545513234
"80",80,"Base_Test1_205","Test1",1,20,"right","female","1","6","Word vs PW","bidaku.wav","bubida.wav",1,2,NA,"Familiar",1,24,1015,1,NA,"Word vs PW",-4.58095545513234
"81",81,"Base_Test1_205","Test1",1,20,"right","female","1","29","Word vs Fin FW","golabu.wav","golaku.wav",NA,1,-1.34526988854491,"Familiar",1,25,974,1,"Final","Word vs FW",-3.58095545513234
"82",82,"Base_Test1_205","Test1",1,20,"right","female","5","1","Word vs PW","labubi.wav","golabu.wav",2,1,NA,"Familiar",1,26,1373,0,NA,"Word vs PW",-2.58095545513234
"83",83,"Base_Test1_205","Test1",1,20,"right","female","5","28","Word vs Fin FW","padobu.wav","padoti.wav",NA,4,0.296611514613159,"Familiar",1,27,1851,0,"Final","Word vs FW",-1.58095545513234
"84",84,"Base_Test1_205","Test1",1,20,"right","female","1","23","Word vs Med FW","tupiro.wav","tudoro.wav",NA,3,0.291753243007115,"Familiar",1,28,1017,1,"Medial","Word vs FW",-0.580955455132344
"85",85,"Base_Test1_205","Test1",1,20,"right","female","1","50","PW vs Fin FW","dakutu.wav","bidaro.wav",2,2,-0.257955755918198,"Familiar",5,29,1274,0,"Final","PW vs FW",0.419044544867656
"86",86,"Base_Test1_205","Test1",1,20,"right","female","1","16","Word vs In FW","padoti.wav","tudoti.wav",NA,4,1.07074586855259,"Familiar",1,30,1501,1,"Initial","Word vs FW",1.41904454486766
"87",87,"Base_Test1_205","Test1",1,20,"right","female","5","38","PW vs In FW","tudaku.wav","bubida.wav",1,2,-0.266109272601177,"Familiar",1,31,1008,0,"Initial","PW vs FW",2.41904454486766
"88",88,"Base_Test1_205","Test1",1,20,"right","female","5","26","Word vs Fin FW","bidaro.wav","bidaku.wav",NA,2,-0.257955755918198,"Familiar",5,32,1190,1,"Final","Word vs FW",3.41904454486766
"89",89,"Base_Test1_205","Test1",1,20,"right","female","5","27","Word vs Fin FW","tupiti.wav","tupiro.wav",NA,3,1.35174727276499,"Familiar",5,33,1580,1,"Final","Word vs FW",4.41904454486766
"90",90,"Base_Test1_205","Test1",1,20,"right","female","5","12","Word vs In FW","godoti.wav","padoti.wav",NA,4,-0.355968481618047,"Familiar",1,34,1696,0,"Initial","Word vs FW",5.41904454486766
"91",91,"Base_Test1_205","Test1",1,20,"right","female","5","4","Word vs PW","dotitu.wav","padoti.wav",2,4,NA,"Familiar",1,35,1048,0,NA,"Word vs PW",6.41904454486766
"92",92,"Base_Test1_205","Test1",1,20,"right","female","5","10","Word vs In FW","godaku.wav","bidaku.wav",NA,2,0.781961875630439,"Familiar",1,36,1034,0,"Initial","Word vs FW",7.41904454486766
"93",93,"Base_Test1_205","Test1",1,20,"right","female","5","53","PW vs Fin FW","golaku.wav","kugola.wav",1,1,-1.34526988854491,"Familiar",1,37,1392,0,"Final","PW vs FW",8.41904454486766
"94",94,"Base_Test1_205","Test1",1,20,"right","female","5","47","PW vs Med FW","tudoro.wav","butupi.wav",1,3,0.291753243007115,"Familiar",5,38,2648,1,"Medial","PW vs FW",9.41904454486766
"95",95,"Base_Test1_205","Test1",1,20,"right","female","1","35","PW vs In FW","piropa.wav","gopiro.wav",2,3,-0.275458580478951,"Familiar",5,39,2144,0,"Initial","PW vs FW",10.4190445448677
"96",96,"Base_Test1_205","Test1",1,20,"right","female","5","39","PW vs In FW","papiro.wav","titupi.wav",1,3,1.07074586855259,"Familiar",5,40,1226,1,"Initial","PW vs FW",11.4190445448677
"97",97,"Base_Test1_205","Test1",1,20,"right","female","1","24","Word vs Med FW","padoti.wav","padati.wav",NA,4,-1.38984163125101,"Familiar",1,41,2067,1,"Medial","Word vs FW",12.4190445448677
"98",98,"Base_Test1_205","Test1",1,20,"right","female","1","22","Word vs Med FW","bidaku.wav","bipiku.wav",NA,2,1.14212436080289,"Familiar",5,42,1820,0,"Medial","Word vs FW",13.4190445448677
"99",99,"Base_Test1_205","Test1",1,20,"right","female","5","2","Word vs PW","dakugo.wav","bidaku.wav",2,2,NA,"Familiar",5,43,1228,1,NA,"Word vs PW",14.4190445448677
"100",100,"Base_Test1_205","Test1",1,20,"right","female","5","20","Word vs Med FW","papiti.wav","padoti.wav",NA,4,0.291753243007115,"Familiar",5,44,1617,1,"Medial","Word vs FW",15.4190445448677
"101",101,"Base_Test1_205","Test1",1,20,"right","female","5","40","PW vs In FW","tudoti.wav","kupado.wav",1,4,1.07074586855259,"Familiar",5,45,1724,1,"Initial","PW vs FW",16.4190445448677
"102",102,"Base_Test1_205","Test1",1,20,"right","female","5","48","PW vs Med FW","padati.wav","ropado.wav",1,4,-1.38984163125101,"Familiar",5,46,1484,1,"Medial","PW vs FW",17.4190445448677
"103",103,"Base_Test1_205","Test1",1,20,"right","female","5","54","PW vs Fin FW","bidabu.wav","robida.wav",1,2,-1.34526988854491,"Familiar",1,47,1032,0,"Final","PW vs FW",18.4190445448677
"104",104,"Base_Test1_205","Test1",1,20,"right","female","1","33","PW vs In FW","labubi.wav","tulabu.wav",2,1,-0.275458580478951,"Familiar",5,48,1389,0,"Initial","PW vs FW",19.4190445448677
"105",105,"Base_Test1_205","Test1",1,20,"right","female","1","5","Word vs PW","golabu.wav","rogola.wav",1,1,NA,"Familiar",1,49,1053,1,NA,"Word vs PW",20.4190445448677
"106",106,"Base_Test1_205","Test1",1,20,"right","female","5","45","PW vs Med FW","godabu.wav","kugola.wav",1,1,-1.60739314711274,"Familiar",1,50,1174,0,"Medial","PW vs FW",21.4190445448677
"107",107,"Base_Test1_205","Test1",1,20,"right","female","5","9","Word vs In FW","tulabu.wav","golabu.wav",NA,1,-0.275458580478951,"Familiar",5,51,2004,1,"Initial","Word vs FW",22.4190445448677
"108",108,"Base_Test1_205","Test1",1,20,"right","female","5","46","PW vs Med FW","bipiku.wav","robida.wav",1,2,1.14212436080289,"Familiar",1,52,960,0,"Medial","PW vs FW",23.4190445448677
"109",109,"Base_Test1_205","Test1",1,20,"right","female","5","37","PW vs In FW","bilabu.wav","rogola.wav",1,1,0.781961875630439,"Familiar",1,53,1712,0,"Initial","PW vs FW",24.4190445448677
"110",110,"Base_Test1_205","Test1",1,20,"right","female","5","17","Word vs Med FW","gopibu.wav","golabu.wav",NA,1,1.10108532403706,"Familiar",1,54,1111,0,"Medial","Word vs FW",25.4190445448677
"111",111,"Base_Test1_205","Test1",1,20,"right","female","1","52","PW vs Fin FW","dotigo.wav","padobu.wav",2,4,0.296611514613159,"Familiar",5,55,1137,0,"Final","PW vs FW",26.4190445448677
"112",112,"Base_Test1_205","Test1",1,20,"right","female","5","19","Word vs Med FW","tularo.wav","tupiro.wav",NA,3,1.10108532403706,"Familiar",5,56,1221,1,"Medial","Word vs FW",27.4190445448677
"113",113,"Base_Test1_206","Test1",2,19,"right","female","5","18","Word vs Med FW","bilaku.wav","bidaku.wav",NA,2,-1.60739314711274,"Familiar",1,1,4509,0,"Medial","Word vs FW",-27.5809554551323
"114",114,"Base_Test1_206","Test1",2,19,"right","female","5","53","PW vs Fin FW","golaku.wav","kugola.wav",1,1,-1.34526988854491,"Familiar",1,2,3610,0,"Final","PW vs FW",-26.5809554551323
"115",115,"Base_Test1_206","Test1",2,19,"right","female","5","1","Word vs PW","labubi.wav","golabu.wav",2,1,NA,"Familiar",5,3,2657,1,NA,"Word vs PW",-25.5809554551323
"116",116,"Base_Test1_206","Test1",2,19,"right","female","1","32","Word vs Fin FW","padoti.wav","padoro.wav",NA,4,1.35174727276499,"Familiar",1,4,1765,1,"Final","Word vs FW",-24.5809554551323
"117",117,"Base_Test1_206","Test1",2,19,"right","female","5","17","Word vs Med FW","gopibu.wav","golabu.wav",NA,1,1.10108532403706,"Familiar",1,5,2653,0,"Medial","Word vs FW",-23.5809554551323
"118",118,"Base_Test1_206","Test1",2,19,"right","female","5","47","PW vs Med FW","tudoro.wav","butupi.wav",1,3,0.291753243007115,"Familiar",1,6,2193,0,"Medial","PW vs FW",-22.5809554551323
"119",119,"Base_Test1_206","Test1",2,19,"right","female","1","49","PW vs Fin FW","labupa.wav","golati.wav",2,1,0.296611514613159,"Familiar",5,7,2780,0,"Final","PW vs FW",-21.5809554551323
"120",120,"Base_Test1_206","Test1",2,19,"right","female","1","16","Word vs In FW","padoti.wav","tudoti.wav",NA,4,1.07074586855259,"Familiar",1,8,2206,1,"Initial","Word vs FW",-20.5809554551323
"121",121,"Base_Test1_206","Test1",2,19,"right","female","5","4","Word vs PW","dotitu.wav","padoti.wav",2,4,NA,"Familiar",1,9,1097,0,NA,"Word vs PW",-19.5809554551323
"122",122,"Base_Test1_206","Test1",2,19,"right","female","1","22","Word vs Med FW","bidaku.wav","bipiku.wav",NA,2,1.14212436080289,"Familiar",1,10,881,1,"Medial","Word vs FW",-18.5809554551323
"123",123,"Base_Test1_206","Test1",2,19,"right","female","5","11","Word vs In FW","gopiro.wav","tupiro.wav",NA,3,-0.275458580478951,"Familiar",5,11,918,1,"Initial","Word vs FW",-17.5809554551323
"124",124,"Base_Test1_206","Test1",2,19,"right","female","5","39","PW vs In FW","papiro.wav","titupi.wav",1,3,1.07074586855259,"Familiar",5,12,2168,1,"Initial","PW vs FW",-16.5809554551323
"125",125,"Base_Test1_206","Test1",2,19,"right","female","5","56","PW vs Fin FW","padoro.wav","ropado.wav",1,4,1.35174727276499,"Familiar",5,13,1300,1,"Final","PW vs FW",-15.5809554551323
"126",126,"Base_Test1_206","Test1",2,19,"right","female","1","30","Word vs Fin FW","bidaku.wav","bidabu.wav",NA,2,-1.34526988854491,"Familiar",1,14,1421,1,"Final","Word vs FW",-14.5809554551323
"127",127,"Base_Test1_206","Test1",2,19,"right","female","5","48","PW vs Med FW","padati.wav","ropado.wav",1,4,-1.38984163125101,"Familiar",5,15,846,1,"Medial","PW vs FW",-13.5809554551323
"128",128,"Base_Test1_206","Test1",2,19,"right","female","1","34","PW vs In FW","dakugo.wav","godaku.wav",2,2,0.781961875630439,"Familiar",1,16,922,1,"Initial","PW vs FW",-12.5809554551323
"129",129,"Base_Test1_206","Test1",2,19,"right","female","5","38","PW vs In FW","tudaku.wav","bubida.wav",1,2,-0.266109272601177,"Familiar",1,17,1714,0,"Initial","PW vs FW",-11.5809554551323
"130",130,"Base_Test1_206","Test1",2,19,"right","female","5","10","Word vs In FW","godaku.wav","bidaku.wav",NA,2,0.781961875630439,"Familiar",1,18,1030,0,"Initial","Word vs FW",-10.5809554551323
"131",131,"Base_Test1_206","Test1",2,19,"right","female","1","31","Word vs Fin FW","tupiro.wav","tupiku.wav",NA,3,-0.257955755918198,"Familiar",5,19,838,0,"Final","Word vs FW",-9.58095545513234
"132",132,"Base_Test1_206","Test1",2,19,"right","female","1","24","Word vs Med FW","padoti.wav","padati.wav",NA,4,-1.38984163125101,"Familiar",1,20,2338,1,"Medial","Word vs FW",-8.58095545513234
"133",133,"Base_Test1_206","Test1",2,19,"right","female","5","27","Word vs Fin FW","tupiti.wav","tupiro.wav",NA,3,1.35174727276499,"Familiar",1,21,1425,0,"Final","Word vs FW",-7.58095545513234
"134",134,"Base_Test1_206","Test1",2,19,"right","female","1","5","Word vs PW","golabu.wav","rogola.wav",1,1,NA,"Familiar",5,22,976,0,NA,"Word vs PW",-6.58095545513234
"135",135,"Base_Test1_206","Test1",2,19,"right","female","1","15","Word vs In FW","tupiro.wav","papiro.wav",NA,3,1.07074586855259,"Familiar",5,23,820,0,"Initial","Word vs FW",-5.58095545513234
"136",136,"Base_Test1_206","Test1",2,19,"right","female","1","13","Word vs In FW","golabu.wav","bilabu.wav",NA,1,0.781961875630439,"Familiar",1,24,1104,1,"Initial","Word vs FW",-4.58095545513234
"137",137,"Base_Test1_206","Test1",2,19,"right","female","5","20","Word vs Med FW","papiti.wav","padoti.wav",NA,4,0.291753243007115,"Familiar",1,25,968,0,"Medial","Word vs FW",-3.58095545513234
"138",138,"Base_Test1_206","Test1",2,19,"right","female","1","7","Word vs PW","tupiro.wav","titupi.wav",1,3,NA,"Familiar",1,26,925,1,NA,"Word vs PW",-2.58095545513234
"139",139,"Base_Test1_206","Test1",2,19,"right","female","1","43","PW vs Med FW","pirogo.wav","tularo.wav",2,3,1.10108532403706,"Familiar",5,27,1104,0,"Medial","PW vs FW",-1.58095545513234
"140",140,"Base_Test1_206","Test1",2,19,"right","female","5","19","Word vs Med FW","tularo.wav","tupiro.wav",NA,3,1.10108532403706,"Familiar",5,28,1245,1,"Medial","Word vs FW",-0.580955455132344
"141",141,"Base_Test1_206","Test1",2,19,"right","female","5","12","Word vs In FW","godoti.wav","padoti.wav",NA,4,-0.355968481618047,"Familiar",1,29,1603,0,"Initial","Word vs FW",0.419044544867656
"142",142,"Base_Test1_206","Test1",2,19,"right","female","1","21","Word vs Med FW","golabu.wav","godabu.wav",NA,1,-1.60739314711274,"Familiar",1,30,1141,1,"Medial","Word vs FW",1.41904454486766
"143",143,"Base_Test1_206","Test1",2,19,"right","female","5","37","PW vs In FW","bilabu.wav","rogola.wav",1,1,0.781961875630439,"Familiar",1,31,2498,0,"Initial","PW vs FW",2.41904454486766
"144",144,"Base_Test1_206","Test1",2,19,"right","female","5","28","Word vs Fin FW","padobu.wav","padoti.wav",NA,4,0.296611514613159,"Familiar",5,32,720,1,"Final","Word vs FW",3.41904454486766
"145",145,"Base_Test1_206","Test1",2,19,"right","female","1","41","PW vs Med FW","labupa.wav","gopibu.wav",2,1,1.10108532403706,"Familiar",1,33,791,1,"Medial","PW vs FW",4.41904454486766
"146",146,"Base_Test1_206","Test1",2,19,"right","female","5","54","PW vs Fin FW","bidabu.wav","robida.wav",1,2,-1.34526988854491,"Familiar",5,34,652,1,"Final","PW vs FW",5.41904454486766
"147",147,"Base_Test1_206","Test1",2,19,"right","female","1","8","Word vs PW","padoti.wav","kupado.wav",1,4,NA,"Familiar",1,35,825,1,NA,"Word vs PW",6.41904454486766
"148",148,"Base_Test1_206","Test1",2,19,"right","female","1","6","Word vs PW","bidaku.wav","bubida.wav",1,2,NA,"Familiar",1,36,768,1,NA,"Word vs PW",7.41904454486766
"149",149,"Base_Test1_206","Test1",2,19,"right","female","1","29","Word vs Fin FW","golabu.wav","golaku.wav",NA,1,-1.34526988854491,"Familiar",5,37,809,0,"Final","Word vs FW",8.41904454486766
"150",150,"Base_Test1_206","Test1",2,19,"right","female","1","42","PW vs Med FW","dakutu.wav","bilaku.wav",2,2,-1.60739314711274,"Familiar",1,38,792,1,"Medial","PW vs FW",9.41904454486766
"151",151,"Base_Test1_206","Test1",2,19,"right","female","5","46","PW vs Med FW","bipiku.wav","robida.wav",1,2,1.14212436080289,"Familiar",5,39,936,1,"Medial","PW vs FW",10.4190445448677
"152",152,"Base_Test1_206","Test1",2,19,"right","female","1","36","PW vs In FW","dotitu.wav","godoti.wav",2,4,-0.355968481618047,"Familiar",1,40,861,1,"Initial","PW vs FW",11.4190445448677
"153",153,"Base_Test1_206","Test1",2,19,"right","female","5","26","Word vs Fin FW","bidaro.wav","bidaku.wav",NA,2,-0.257955755918198,"Familiar",5,41,1009,1,"Final","Word vs FW",12.4190445448677
"154",154,"Base_Test1_206","Test1",2,19,"right","female","1","14","Word vs In FW","bidaku.wav","tudaku.wav",NA,2,-0.266109272601177,"Familiar",1,42,1045,1,"Initial","Word vs FW",13.4190445448677
"155",155,"Base_Test1_206","Test1",2,19,"right","female","1","33","PW vs In FW","labubi.wav","tulabu.wav",2,1,-0.275458580478951,"Familiar",5,43,757,0,"Initial","PW vs FW",14.4190445448677
"156",156,"Base_Test1_206","Test1",2,19,"right","female","1","44","PW vs Med FW","dotigo.wav","papiti.wav",2,4,0.291753243007115,"Familiar",1,44,858,1,"Medial","PW vs FW",15.4190445448677
"157",157,"Base_Test1_206","Test1",2,19,"right","female","1","23","Word vs Med FW","tupiro.wav","tudoro.wav",NA,3,0.291753243007115,"Familiar",1,45,1485,1,"Medial","Word vs FW",16.4190445448677
"158",158,"Base_Test1_206","Test1",2,19,"right","female","5","3","Word vs PW","piropa.wav","tupiro.wav",2,3,NA,"Familiar",5,46,724,1,NA,"Word vs PW",17.4190445448677
"159",159,"Base_Test1_206","Test1",2,19,"right","female","1","50","PW vs Fin FW","dakutu.wav","bidaro.wav",2,2,-0.257955755918198,"Familiar",1,47,1587,1,"Final","PW vs FW",18.4190445448677
"160",160,"Base_Test1_206","Test1",2,19,"right","female","5","55","PW vs Fin FW","tupiku.wav","butupi.wav",1,3,-0.257955755918198,"Familiar",5,48,748,1,"Final","PW vs FW",19.4190445448677
"161",161,"Base_Test1_206","Test1",2,19,"right","female","5","45","PW vs Med FW","godabu.wav","kugola.wav",1,1,-1.60739314711274,"Familiar",5,49,867,1,"Medial","PW vs FW",20.4190445448677
"162",162,"Base_Test1_206","Test1",2,19,"right","female","1","52","PW vs Fin FW","dotigo.wav","padobu.wav",2,4,0.296611514613159,"Familiar",1,50,1503,1,"Final","PW vs FW",21.4190445448677
"163",163,"Base_Test1_206","Test1",2,19,"right","female","1","35","PW vs In FW","piropa.wav","gopiro.wav",2,3,-0.275458580478951,"Familiar",1,51,1427,1,"Initial","PW vs FW",22.4190445448677
"164",164,"Base_Test1_206","Test1",2,19,"right","female","5","40","PW vs In FW","tudoti.wav","kupado.wav",1,4,1.07074586855259,"Familiar",1,52,1479,0,"Initial","PW vs FW",23.4190445448677
"165",165,"Base_Test1_206","Test1",2,19,"right","female","1","51","PW vs Fin FW","pirogo.wav","tupiti.wav",2,3,1.35174727276499,"Familiar",5,53,715,0,"Final","PW vs FW",24.4190445448677
"166",166,"Base_Test1_206","Test1",2,19,"right","female","5","9","Word vs In FW","tulabu.wav","golabu.wav",NA,1,-0.275458580478951,"Familiar",1,54,668,0,"Initial","Word vs FW",25.4190445448677
"167",167,"Base_Test1_206","Test1",2,19,"right","female","5","25","Word vs Fin FW","golati.wav","golabu.wav",NA,1,0.296611514613159,"Familiar",5,55,991,1,"Final","Word vs FW",26.4190445448677
"168",168,"Base_Test1_206","Test1",2,19,"right","female","5","2","Word vs PW","dakugo.wav","bidaku.wav",2,2,NA,"Familiar",1,56,2764,0,NA,"Word vs PW",27.4190445448677
"169",169,"Base_Test1_207","Test1",1,22,"right","female","5","54","PW vs Fin FW","bidabu.wav","robida.wav",1,2,-1.34526988854491,"Familiar",5,1,4254,1,"Final","PW vs FW",-27.5809554551323
"170",170,"Base_Test1_207","Test1",1,22,"right","female","5","18","Word vs Med FW","bilaku.wav","bidaku.wav",NA,2,-1.60739314711274,"Familiar",5,2,2294,1,"Medial","Word vs FW",-26.5809554551323
"171",171,"Base_Test1_207","Test1",1,22,"right","female","1","29","Word vs Fin FW","golabu.wav","golaku.wav",NA,1,-1.34526988854491,"Familiar",1,3,2378,1,"Final","Word vs FW",-25.5809554551323
"172",172,"Base_Test1_207","Test1",1,22,"right","female","1","7","Word vs PW","tupiro.wav","titupi.wav",1,3,NA,"Familiar",1,4,1281,1,NA,"Word vs PW",-24.5809554551323
"173",173,"Base_Test1_207","Test1",1,22,"right","female","5","40","PW vs In FW","tudoti.wav","kupado.wav",1,4,1.07074586855259,"Familiar",5,5,1461,1,"Initial","PW vs FW",-23.5809554551323
"174",174,"Base_Test1_207","Test1",1,22,"right","female","5","55","PW vs Fin FW","tupiku.wav","butupi.wav",1,3,-0.257955755918198,"Familiar",1,6,1247,0,"Final","PW vs FW",-22.5809554551323
"175",175,"Base_Test1_207","Test1",1,22,"right","female","5","9","Word vs In FW","tulabu.wav","golabu.wav",NA,1,-0.275458580478951,"Familiar",1,7,1672,0,"Initial","Word vs FW",-21.5809554551323
"176",176,"Base_Test1_207","Test1",1,22,"right","female","1","16","Word vs In FW","padoti.wav","tudoti.wav",NA,4,1.07074586855259,"Familiar",1,8,1362,1,"Initial","Word vs FW",-20.5809554551323
"177",177,"Base_Test1_207","Test1",1,22,"right","female","1","24","Word vs Med FW","padoti.wav","padati.wav",NA,4,-1.38984163125101,"Familiar",1,9,2355,1,"Medial","Word vs FW",-19.5809554551323
"178",178,"Base_Test1_207","Test1",1,22,"right","female","5","3","Word vs PW","piropa.wav","tupiro.wav",2,3,NA,"Familiar",1,10,2777,0,NA,"Word vs PW",-18.5809554551323
"179",179,"Base_Test1_207","Test1",1,22,"right","female","1","30","Word vs Fin FW","bidaku.wav","bidabu.wav",NA,2,-1.34526988854491,"Familiar",1,11,1520,1,"Final","Word vs FW",-17.5809554551323
"180",180,"Base_Test1_207","Test1",1,22,"right","female","5","1","Word vs PW","labubi.wav","golabu.wav",2,1,NA,"Familiar",5,12,1090,1,NA,"Word vs PW",-16.5809554551323
"181",181,"Base_Test1_207","Test1",1,22,"right","female","5","19","Word vs Med FW","tularo.wav","tupiro.wav",NA,3,1.10108532403706,"Familiar",5,13,1254,1,"Medial","Word vs FW",-15.5809554551323
"182",182,"Base_Test1_207","Test1",1,22,"right","female","5","25","Word vs Fin FW","golati.wav","golabu.wav",NA,1,0.296611514613159,"Familiar",5,14,3597,1,"Final","Word vs FW",-14.5809554551323
"183",183,"Base_Test1_207","Test1",1,22,"right","female","5","53","PW vs Fin FW","golaku.wav","kugola.wav",1,1,-1.34526988854491,"Familiar",1,15,1909,0,"Final","PW vs FW",-13.5809554551323
"184",184,"Base_Test1_207","Test1",1,22,"right","female","5","2","Word vs PW","dakugo.wav","bidaku.wav",2,2,NA,"Familiar",5,16,1245,1,NA,"Word vs PW",-12.5809554551323
"185",185,"Base_Test1_207","Test1",1,22,"right","female","5","47","PW vs Med FW","tudoro.wav","butupi.wav",1,3,0.291753243007115,"Familiar",1,17,1153,0,"Medial","PW vs FW",-11.5809554551323
"186",186,"Base_Test1_207","Test1",1,22,"right","female","1","36","PW vs In FW","dotitu.wav","godoti.wav",2,4,-0.355968481618047,"Familiar",5,18,1233,0,"Initial","PW vs FW",-10.5809554551323
"187",187,"Base_Test1_207","Test1",1,22,"right","female","5","39","PW vs In FW","papiro.wav","titupi.wav",1,3,1.07074586855259,"Familiar",1,19,1234,0,"Initial","PW vs FW",-9.58095545513234
"188",188,"Base_Test1_207","Test1",1,22,"right","female","1","51","PW vs Fin FW","pirogo.wav","tupiti.wav",2,3,1.35174727276499,"Familiar",1,20,1283,1,"Final","PW vs FW",-8.58095545513234
"189",189,"Base_Test1_207","Test1",1,22,"right","female","1","14","Word vs In FW","bidaku.wav","tudaku.wav",NA,2,-0.266109272601177,"Familiar",1,21,3981,1,"Initial","Word vs FW",-7.58095545513234
"190",190,"Base_Test1_207","Test1",1,22,"right","female","1","43","PW vs Med FW","pirogo.wav","tularo.wav",2,3,1.10108532403706,"Familiar",1,22,1706,1,"Medial","PW vs FW",-6.58095545513234
"191",191,"Base_Test1_207","Test1",1,22,"right","female","5","12","Word vs In FW","godoti.wav","padoti.wav",NA,4,-0.355968481618047,"Familiar",1,23,1220,0,"Initial","Word vs FW",-5.58095545513234
"192",192,"Base_Test1_207","Test1",1,22,"right","female","5","56","PW vs Fin FW","padoro.wav","ropado.wav",1,4,1.35174727276499,"Familiar",5,24,2684,1,"Final","PW vs FW",-4.58095545513234
"193",193,"Base_Test1_207","Test1",1,22,"right","female","1","23","Word vs Med FW","tupiro.wav","tudoro.wav",NA,3,0.291753243007115,"Familiar",1,25,1923,1,"Medial","Word vs FW",-3.58095545513234
"194",194,"Base_Test1_207","Test1",1,22,"right","female","1","5","Word vs PW","golabu.wav","rogola.wav",1,1,NA,"Familiar",1,26,1742,1,NA,"Word vs PW",-2.58095545513234
"195",195,"Base_Test1_207","Test1",1,22,"right","female","5","37","PW vs In FW","bilabu.wav","rogola.wav",1,1,0.781961875630439,"Familiar",1,27,1508,0,"Initial","PW vs FW",-1.58095545513234
"196",196,"Base_Test1_207","Test1",1,22,"right","female","1","42","PW vs Med FW","dakutu.wav","bilaku.wav",2,2,-1.60739314711274,"Familiar",5,28,1015,0,"Medial","PW vs FW",-0.580955455132344
"197",197,"Base_Test1_207","Test1",1,22,"right","female","1","31","Word vs Fin FW","tupiro.wav","tupiku.wav",NA,3,-0.257955755918198,"Familiar",1,29,1062,1,"Final","Word vs FW",0.419044544867656
"198",198,"Base_Test1_207","Test1",1,22,"right","female","5","17","Word vs Med FW","gopibu.wav","golabu.wav",NA,1,1.10108532403706,"Familiar",5,30,1146,1,"Medial","Word vs FW",1.41904454486766
"199",199,"Base_Test1_207","Test1",1,22,"right","female","1","34","PW vs In FW","dakugo.wav","godaku.wav",2,2,0.781961875630439,"Familiar",1,31,2513,1,"Initial","PW vs FW",2.41904454486766
"200",200,"Base_Test1_207","Test1",1,22,"right","female","1","33","PW vs In FW","labubi.wav","tulabu.wav",2,1,-0.275458580478951,"Familiar",5,32,3111,0,"Initial","PW vs FW",3.41904454486766
"201",201,"Base_Test1_207","Test1",1,22,"right","female","5","28","Word vs Fin FW","padobu.wav","padoti.wav",NA,4,0.296611514613159,"Familiar",5,33,1740,1,"Final","Word vs FW",4.41904454486766
"202",202,"Base_Test1_207","Test1",1,22,"right","female","1","41","PW vs Med FW","labupa.wav","gopibu.wav",2,1,1.10108532403706,"Familiar",1,34,3550,1,"Medial","PW vs FW",5.41904454486766
"203",203,"Base_Test1_207","Test1",1,22,"right","female","5","4","Word vs PW","dotitu.wav","padoti.wav",2,4,NA,"Familiar",5,35,1229,1,NA,"Word vs PW",6.41904454486766
"204",204,"Base_Test1_207","Test1",1,22,"right","female","5","38","PW vs In FW","tudaku.wav","bubida.wav",1,2,-0.266109272601177,"Familiar",1,36,1521,0,"Initial","PW vs FW",7.41904454486766
"205",205,"Base_Test1_207","Test1",1,22,"right","female","1","49","PW vs Fin FW","labupa.wav","golati.wav",2,1,0.296611514613159,"Familiar",5,37,1896,0,"Final","PW vs FW",8.41904454486766
"206",206,"Base_Test1_207","Test1",1,22,"right","female","5","27","Word vs Fin FW","tupiti.wav","tupiro.wav",NA,3,1.35174727276499,"Familiar",5,38,1509,1,"Final","Word vs FW",9.41904454486766
"207",207,"Base_Test1_207","Test1",1,22,"right","female","1","22","Word vs Med FW","bidaku.wav","bipiku.wav",NA,2,1.14212436080289,"Familiar",1,39,1455,1,"Medial","Word vs FW",10.4190445448677
"208",208,"Base_Test1_207","Test1",1,22,"right","female","1","6","Word vs PW","bidaku.wav","bubida.wav",1,2,NA,"Familiar",1,40,1011,1,NA,"Word vs PW",11.4190445448677
"209",209,"Base_Test1_207","Test1",1,22,"right","female","1","35","PW vs In FW","piropa.wav","gopiro.wav",2,3,-0.275458580478951,"Familiar",5,41,3878,0,"Initial","PW vs FW",12.4190445448677
"210",210,"Base_Test1_207","Test1",1,22,"right","female","1","15","Word vs In FW","tupiro.wav","papiro.wav",NA,3,1.07074586855259,"Familiar",1,42,1224,1,"Initial","Word vs FW",13.4190445448677
"211",211,"Base_Test1_207","Test1",1,22,"right","female","1","8","Word vs PW","padoti.wav","kupado.wav",1,4,NA,"Familiar",1,43,2230,1,NA,"Word vs PW",14.4190445448677
"212",212,"Base_Test1_207","Test1",1,22,"right","female","1","13","Word vs In FW","golabu.wav","bilabu.wav",NA,1,0.781961875630439,"Familiar",1,44,1563,1,"Initial","Word vs FW",15.4190445448677
"213",213,"Base_Test1_207","Test1",1,22,"right","female","5","26","Word vs Fin FW","bidaro.wav","bidaku.wav",NA,2,-0.257955755918198,"Familiar",5,45,1818,1,"Final","Word vs FW",16.4190445448677
"214",214,"Base_Test1_207","Test1",1,22,"right","female","1","21","Word vs Med FW","golabu.wav","godabu.wav",NA,1,-1.60739314711274,"Familiar",1,46,1364,1,"Medial","Word vs FW",17.4190445448677
"215",215,"Base_Test1_207","Test1",1,22,"right","female","5","46","PW vs Med FW","bipiku.wav","robida.wav",1,2,1.14212436080289,"Familiar",1,47,1726,0,"Medial","PW vs FW",18.4190445448677
"216",216,"Base_Test1_207","Test1",1,22,"right","female","1","52","PW vs Fin FW","dotigo.wav","padobu.wav",2,4,0.296611514613159,"Familiar",5,48,1195,0,"Final","PW vs FW",19.4190445448677
"217",217,"Base_Test1_207","Test1",1,22,"right","female","1","44","PW vs Med FW","dotigo.wav","papiti.wav",2,4,0.291753243007115,"Familiar",1,49,1864,1,"Medial","PW vs FW",20.4190445448677
"218",218,"Base_Test1_207","Test1",1,22,"right","female","5","20","Word vs Med FW","papiti.wav","padoti.wav",NA,4,0.291753243007115,"Familiar",5,50,1032,1,"Medial","Word vs FW",21.4190445448677
"219",219,"Base_Test1_207","Test1",1,22,"right","female","5","10","Word vs In FW","godaku.wav","bidaku.wav",NA,2,0.781961875630439,"Familiar",1,51,1959,0,"Initial","Word vs FW",22.4190445448677
"220",220,"Base_Test1_207","Test1",1,22,"right","female","5","11","Word vs In FW","gopiro.wav","tupiro.wav",NA,3,-0.275458580478951,"Familiar",1,52,2175,0,"Initial","Word vs FW",23.4190445448677
"221",221,"Base_Test1_207","Test1",1,22,"right","female","5","45","PW vs Med FW","godabu.wav","kugola.wav",1,1,-1.60739314711274,"Familiar",1,53,725,0,"Medial","PW vs FW",24.4190445448677
"222",222,"Base_Test1_207","Test1",1,22,"right","female","1","50","PW vs Fin FW","dakutu.wav","bidaro.wav",2,2,-0.257955755918198,"Familiar",5,54,1008,0,"Final","PW vs FW",25.4190445448677
"223",223,"Base_Test1_207","Test1",1,22,"right","female","5","48","PW vs Med FW","padati.wav","ropado.wav",1,4,-1.38984163125101,"Familiar",5,55,4176,1,"Medial","PW vs FW",26.4190445448677
"224",224,"Base_Test1_207","Test1",1,22,"right","female","1","32","Word vs Fin FW","padoti.wav","padoro.wav",NA,4,1.35174727276499,"Familiar",1,56,1670,1,"Final","Word vs FW",27.4190445448677
"225",225,"Base_Test1_208","Test1",2,22,"right","female","5","54","PW vs Fin FW","bidabu.wav","robida.wav",1,2,-1.34526988854491,"Familiar",1,1,3939,0,"Final","PW vs FW",-27.5809554551323
"226",226,"Base_Test1_208","Test1",2,22,"right","female","1","21","Word vs Med FW","golabu.wav","godabu.wav",NA,1,-1.60739314711274,"Familiar",1,2,1758,1,"Medial","Word vs FW",-26.5809554551323
"227",227,"Base_Test1_208","Test1",2,22,"right","female","5","27","Word vs Fin FW","tupiti.wav","tupiro.wav",NA,3,1.35174727276499,"Familiar",5,3,2413,1,"Final","Word vs FW",-25.5809554551323
"228",228,"Base_Test1_208","Test1",2,22,"right","female","5","10","Word vs In FW","godaku.wav","bidaku.wav",NA,2,0.781961875630439,"Familiar",1,4,1814,0,"Initial","Word vs FW",-24.5809554551323
"229",229,"Base_Test1_208","Test1",2,22,"right","female","1","15","Word vs In FW","tupiro.wav","papiro.wav",NA,3,1.07074586855259,"Familiar",1,5,1547,1,"Initial","Word vs FW",-23.5809554551323
"230",230,"Base_Test1_208","Test1",2,22,"right","female","1","5","Word vs PW","golabu.wav","rogola.wav",1,1,NA,"Familiar",1,6,1610,1,NA,"Word vs PW",-22.5809554551323
"231",231,"Base_Test1_208","Test1",2,22,"right","female","1","8","Word vs PW","padoti.wav","kupado.wav",1,4,NA,"Familiar",1,7,2082,1,NA,"Word vs PW",-21.5809554551323
"232",232,"Base_Test1_208","Test1",2,22,"right","female","1","33","PW vs In FW","labubi.wav","tulabu.wav",2,1,-0.275458580478951,"Familiar",5,8,2090,0,"Initial","PW vs FW",-20.5809554551323
"233",233,"Base_Test1_208","Test1",2,22,"right","female","5","26","Word vs Fin FW","bidaro.wav","bidaku.wav",NA,2,-0.257955755918198,"Familiar",1,9,2852,0,"Final","Word vs FW",-19.5809554551323
"234",234,"Base_Test1_208","Test1",2,22,"right","female","5","28","Word vs Fin FW","padobu.wav","padoti.wav",NA,4,0.296611514613159,"Familiar",1,10,5500,0,"Final","Word vs FW",-18.5809554551323
"235",235,"Base_Test1_208","Test1",2,22,"right","female","1","52","PW vs Fin FW","dotigo.wav","padobu.wav",2,4,0.296611514613159,"Familiar",1,11,1588,1,"Final","PW vs FW",-17.5809554551323
"236",236,"Base_Test1_208","Test1",2,22,"right","female","1","34","PW vs In FW","dakugo.wav","godaku.wav",2,2,0.781961875630439,"Familiar",1,12,1973,1,"Initial","PW vs FW",-16.5809554551323
"237",237,"Base_Test1_208","Test1",2,22,"right","female","1","13","Word vs In FW","golabu.wav","bilabu.wav",NA,1,0.781961875630439,"Familiar",1,13,1468,1,"Initial","Word vs FW",-15.5809554551323
"238",238,"Base_Test1_208","Test1",2,22,"right","female","1","6","Word vs PW","bidaku.wav","bubida.wav",1,2,NA,"Familiar",1,14,1775,1,NA,"Word vs PW",-14.5809554551323
"239",239,"Base_Test1_208","Test1",2,22,"right","female","5","55","PW vs Fin FW","tupiku.wav","butupi.wav",1,3,-0.257955755918198,"Familiar",5,15,2004,1,"Final","PW vs FW",-13.5809554551323
"240",240,"Base_Test1_208","Test1",2,22,"right","female","5","3","Word vs PW","piropa.wav","tupiro.wav",2,3,NA,"Familiar",5,16,1749,1,NA,"Word vs PW",-12.5809554551323
"241",241,"Base_Test1_208","Test1",2,22,"right","female","5","53","PW vs Fin FW","golaku.wav","kugola.wav",1,1,-1.34526988854491,"Familiar",1,17,1609,0,"Final","PW vs FW",-11.5809554551323
"242",242,"Base_Test1_208","Test1",2,22,"right","female","1","29","Word vs Fin FW","golabu.wav","golaku.wav",NA,1,-1.34526988854491,"Familiar",1,18,2845,1,"Final","Word vs FW",-10.5809554551323
"243",243,"Base_Test1_208","Test1",2,22,"right","female","5","38","PW vs In FW","tudaku.wav","bubida.wav",1,2,-0.266109272601177,"Familiar",1,19,3366,0,"Initial","PW vs FW",-9.58095545513234
"244",244,"Base_Test1_208","Test1",2,22,"right","female","5","9","Word vs In FW","tulabu.wav","golabu.wav",NA,1,-0.275458580478951,"Familiar",5,20,1975,1,"Initial","Word vs FW",-8.58095545513234
"245",245,"Base_Test1_208","Test1",2,22,"right","female","5","4","Word vs PW","dotitu.wav","padoti.wav",2,4,NA,"Familiar",5,21,4029,1,NA,"Word vs PW",-7.58095545513234
"246",246,"Base_Test1_208","Test1",2,22,"right","female","5","2","Word vs PW","dakugo.wav","bidaku.wav",2,2,NA,"Familiar",5,22,1579,1,NA,"Word vs PW",-6.58095545513234
"247",247,"Base_Test1_208","Test1",2,22,"right","female","5","11","Word vs In FW","gopiro.wav","tupiro.wav",NA,3,-0.275458580478951,"Familiar",1,23,2853,0,"Initial","Word vs FW",-5.58095545513234
"248",248,"Base_Test1_208","Test1",2,22,"right","female","1","7","Word vs PW","tupiro.wav","titupi.wav",1,3,NA,"Familiar",1,24,1888,1,NA,"Word vs PW",-4.58095545513234
"249",249,"Base_Test1_208","Test1",2,22,"right","female","5","1","Word vs PW","labubi.wav","golabu.wav",2,1,NA,"Familiar",5,25,1654,1,NA,"Word vs PW",-3.58095545513234
"250",250,"Base_Test1_208","Test1",2,22,"right","female","1","24","Word vs Med FW","padoti.wav","padati.wav",NA,4,-1.38984163125101,"Familiar",5,26,1862,0,"Medial","Word vs FW",-2.58095545513234
"251",251,"Base_Test1_208","Test1",2,22,"right","female","1","43","PW vs Med FW","pirogo.wav","tularo.wav",2,3,1.10108532403706,"Familiar",5,27,4601,0,"Medial","PW vs FW",-1.58095545513234
"252",252,"Base_Test1_208","Test1",2,22,"right","female","5","40","PW vs In FW","tudoti.wav","kupado.wav",1,4,1.07074586855259,"Familiar",5,28,3313,1,"Initial","PW vs FW",-0.580955455132344
"253",253,"Base_Test1_208","Test1",2,22,"right","female","1","44","PW vs Med FW","dotigo.wav","papiti.wav",2,4,0.291753243007115,"Familiar",1,29,1351,1,"Medial","PW vs FW",0.419044544867656
"254",254,"Base_Test1_208","Test1",2,22,"right","female","1","32","Word vs Fin FW","padoti.wav","padoro.wav",NA,4,1.35174727276499,"Familiar",1,30,2373,1,"Final","Word vs FW",1.41904454486766
"255",255,"Base_Test1_208","Test1",2,22,"right","female","1","14","Word vs In FW","bidaku.wav","tudaku.wav",NA,2,-0.266109272601177,"Familiar",1,31,4266,1,"Initial","Word vs FW",2.41904454486766
"256",256,"Base_Test1_208","Test1",2,22,"right","female","5","12","Word vs In FW","godoti.wav","padoti.wav",NA,4,-0.355968481618047,"Familiar",1,32,3326,0,"Initial","Word vs FW",3.41904454486766
"257",257,"Base_Test1_208","Test1",2,22,"right","female","5","47","PW vs Med FW","tudoro.wav","butupi.wav",1,3,0.291753243007115,"Familiar",1,33,4846,0,"Medial","PW vs FW",4.41904454486766
"258",258,"Base_Test1_208","Test1",2,22,"right","female","5","37","PW vs In FW","bilabu.wav","rogola.wav",1,1,0.781961875630439,"Familiar",5,34,2290,1,"Initial","PW vs FW",5.41904454486766
"259",259,"Base_Test1_208","Test1",2,22,"right","female","1","35","PW vs In FW","piropa.wav","gopiro.wav",2,3,-0.275458580478951,"Familiar",1,35,1706,1,"Initial","PW vs FW",6.41904454486766
"260",260,"Base_Test1_208","Test1",2,22,"right","female","5","48","PW vs Med FW","padati.wav","ropado.wav",1,4,-1.38984163125101,"Familiar",1,36,2897,0,"Medial","PW vs FW",7.41904454486766
"261",261,"Base_Test1_208","Test1",2,22,"right","female","5","18","Word vs Med FW","bilaku.wav","bidaku.wav",NA,2,-1.60739314711274,"Familiar",1,37,3034,0,"Medial","Word vs FW",8.41904454486766
"262",262,"Base_Test1_208","Test1",2,22,"right","female","1","49","PW vs Fin FW","labupa.wav","golati.wav",2,1,0.296611514613159,"Familiar",1,38,2230,1,"Final","PW vs FW",9.41904454486766
"263",263,"Base_Test1_208","Test1",2,22,"right","female","1","51","PW vs Fin FW","pirogo.wav","tupiti.wav",2,3,1.35174727276499,"Familiar",1,39,1957,1,"Final","PW vs FW",10.4190445448677
"264",264,"Base_Test1_208","Test1",2,22,"right","female","1","42","PW vs Med FW","dakutu.wav","bilaku.wav",2,2,-1.60739314711274,"Familiar",5,40,1644,0,"Medial","PW vs FW",11.4190445448677
"265",265,"Base_Test1_208","Test1",2,22,"right","female","5","25","Word vs Fin FW","golati.wav","golabu.wav",NA,1,0.296611514613159,"Familiar",1,41,1814,0,"Final","Word vs FW",12.4190445448677
"266",266,"Base_Test1_208","Test1",2,22,"right","female","5","19","Word vs Med FW","tularo.wav","tupiro.wav",NA,3,1.10108532403706,"Familiar",5,42,2441,1,"Medial","Word vs FW",13.4190445448677
"267",267,"Base_Test1_208","Test1",2,22,"right","female","5","39","PW vs In FW","papiro.wav","titupi.wav",1,3,1.07074586855259,"Familiar",1,43,1539,0,"Initial","PW vs FW",14.4190445448677
"268",268,"Base_Test1_208","Test1",2,22,"right","female","1","30","Word vs Fin FW","bidaku.wav","bidabu.wav",NA,2,-1.34526988854491,"Familiar",1,44,2297,1,"Final","Word vs FW",15.4190445448677
"269",269,"Base_Test1_208","Test1",2,22,"right","female","1","36","PW vs In FW","dotitu.wav","godoti.wav",2,4,-0.355968481618047,"Familiar",1,45,2556,1,"Initial","PW vs FW",16.4190445448677
"270",270,"Base_Test1_208","Test1",2,22,"right","female","1","50","PW vs Fin FW","dakutu.wav","bidaro.wav",2,2,-0.257955755918198,"Familiar",5,46,4487,0,"Final","PW vs FW",17.4190445448677
"271",271,"Base_Test1_208","Test1",2,22,"right","female","1","22","Word vs Med FW","bidaku.wav","bipiku.wav",NA,2,1.14212436080289,"Familiar",1,47,1168,1,"Medial","Word vs FW",18.4190445448677
"272",272,"Base_Test1_208","Test1",2,22,"right","female","5","45","PW vs Med FW","godabu.wav","kugola.wav",1,1,-1.60739314711274,"Familiar",1,48,1528,0,"Medial","PW vs FW",19.4190445448677
"273",273,"Base_Test1_208","Test1",2,22,"right","female","5","56","PW vs Fin FW","padoro.wav","ropado.wav",1,4,1.35174727276499,"Familiar",1,49,3130,0,"Final","PW vs FW",20.4190445448677
"274",274,"Base_Test1_208","Test1",2,22,"right","female","5","46","PW vs Med FW","bipiku.wav","robida.wav",1,2,1.14212436080289,"Familiar",5,50,2399,1,"Medial","PW vs FW",21.4190445448677
"275",275,"Base_Test1_208","Test1",2,22,"right","female","5","17","Word vs Med FW","gopibu.wav","golabu.wav",NA,1,1.10108532403706,"Familiar",5,51,2514,1,"Medial","Word vs FW",22.4190445448677
"276",276,"Base_Test1_208","Test1",2,22,"right","female","5","20","Word vs Med FW","papiti.wav","padoti.wav",NA,4,0.291753243007115,"Familiar",1,52,1867,0,"Medial","Word vs FW",23.4190445448677
"277",277,"Base_Test1_208","Test1",2,22,"right","female","1","41","PW vs Med FW","labupa.wav","gopibu.wav",2,1,1.10108532403706,"Familiar",1,53,2066,1,"Medial","PW vs FW",24.4190445448677
"278",278,"Base_Test1_208","Test1",2,22,"right","female","1","31","Word vs Fin FW","tupiro.wav","tupiku.wav",NA,3,-0.257955755918198,"Familiar",1,54,1909,1,"Final","Word vs FW",25.4190445448677
"279",279,"Base_Test1_208","Test1",2,22,"right","female","1","16","Word vs In FW","padoti.wav","tudoti.wav",NA,4,1.07074586855259,"Familiar",1,55,2361,1,"Initial","Word vs FW",26.4190445448677
"280",280,"Base_Test1_208","Test1",2,22,"right","female","1","23","Word vs Med FW","tupiro.wav","tudoro.wav",NA,3,0.291753243007115,"Familiar",1,56,1446,1,"Medial","Word vs FW",27.4190445448677
"281",281,"Base_Test1_209","Test1",1,22,"right","female","5","26","Word vs Fin FW","bidaro.wav","bidaku.wav",NA,2,-0.257955755918198,"Familiar",1,1,7811,0,"Final","Word vs FW",-27.5809554551323
"282",282,"Base_Test1_209","Test1",1,22,"right","female","1","23","Word vs Med FW","tupiro.wav","tudoro.wav",NA,3,0.291753243007115,"Familiar",1,2,2094,1,"Medial","Word vs FW",-26.5809554551323
"283",283,"Base_Test1_209","Test1",1,22,"right","female","5","20","Word vs Med FW","papiti.wav","padoti.wav",NA,4,0.291753243007115,"Familiar",5,3,2965,1,"Medial","Word vs FW",-25.5809554551323
"284",284,"Base_Test1_209","Test1",1,22,"right","female","5","28","Word vs Fin FW","padobu.wav","padoti.wav",NA,4,0.296611514613159,"Familiar",5,4,1535,1,"Final","Word vs FW",-24.5809554551323
"285",285,"Base_Test1_209","Test1",1,22,"right","female","5","25","Word vs Fin FW","golati.wav","golabu.wav",NA,1,0.296611514613159,"Familiar",1,5,1344,0,"Final","Word vs FW",-23.5809554551323
"286",286,"Base_Test1_209","Test1",1,22,"right","female","5","17","Word vs Med FW","gopibu.wav","golabu.wav",NA,1,1.10108532403706,"Familiar",5,6,2137,1,"Medial","Word vs FW",-22.5809554551323
"287",287,"Base_Test1_209","Test1",1,22,"right","female","1","51","PW vs Fin FW","pirogo.wav","tupiti.wav",2,3,1.35174727276499,"Familiar",5,7,3548,0,"Final","PW vs FW",-21.5809554551323
"288",288,"Base_Test1_209","Test1",1,22,"right","female","1","34","PW vs In FW","dakugo.wav","godaku.wav",2,2,0.781961875630439,"Familiar",1,8,1284,1,"Initial","PW vs FW",-20.5809554551323
"289",289,"Base_Test1_209","Test1",1,22,"right","female","5","48","PW vs Med FW","padati.wav","ropado.wav",1,4,-1.38984163125101,"Familiar",1,9,2422,0,"Medial","PW vs FW",-19.5809554551323
"290",290,"Base_Test1_209","Test1",1,22,"right","female","1","13","Word vs In FW","golabu.wav","bilabu.wav",NA,1,0.781961875630439,"Familiar",1,10,1943,1,"Initial","Word vs FW",-18.5809554551323
"291",291,"Base_Test1_209","Test1",1,22,"right","female","1","15","Word vs In FW","tupiro.wav","papiro.wav",NA,3,1.07074586855259,"Familiar",1,11,2367,1,"Initial","Word vs FW",-17.5809554551323
"292",292,"Base_Test1_209","Test1",1,22,"right","female","5","53","PW vs Fin FW","golaku.wav","kugola.wav",1,1,-1.34526988854491,"Familiar",1,12,1137,0,"Final","PW vs FW",-16.5809554551323
"293",293,"Base_Test1_209","Test1",1,22,"right","female","1","6","Word vs PW","bidaku.wav","bubida.wav",1,2,NA,"Familiar",5,13,2264,0,NA,"Word vs PW",-15.5809554551323
"294",294,"Base_Test1_209","Test1",1,22,"right","female","5","38","PW vs In FW","tudaku.wav","bubida.wav",1,2,-0.266109272601177,"Familiar",1,14,1263,0,"Initial","PW vs FW",-14.5809554551323
"295",295,"Base_Test1_209","Test1",1,22,"right","female","5","39","PW vs In FW","papiro.wav","titupi.wav",1,3,1.07074586855259,"Familiar",1,15,1357,0,"Initial","PW vs FW",-13.5809554551323
"296",296,"Base_Test1_209","Test1",1,22,"right","female","5","19","Word vs Med FW","tularo.wav","tupiro.wav",NA,3,1.10108532403706,"Familiar",1,16,2812,0,"Medial","Word vs FW",-12.5809554551323
"297",297,"Base_Test1_209","Test1",1,22,"right","female","1","29","Word vs Fin FW","golabu.wav","golaku.wav",NA,1,-1.34526988854491,"Familiar",1,17,1279,1,"Final","Word vs FW",-11.5809554551323
"298",298,"Base_Test1_209","Test1",1,22,"right","female","1","16","Word vs In FW","padoti.wav","tudoti.wav",NA,4,1.07074586855259,"Familiar",1,18,1355,1,"Initial","Word vs FW",-10.5809554551323
"299",299,"Base_Test1_209","Test1",1,22,"right","female","1","21","Word vs Med FW","golabu.wav","godabu.wav",NA,1,-1.60739314711274,"Familiar",1,19,1020,1,"Medial","Word vs FW",-9.58095545513234
"300",300,"Base_Test1_209","Test1",1,22,"right","female","5","10","Word vs In FW","godaku.wav","bidaku.wav",NA,2,0.781961875630439,"Familiar",5,20,5664,1,"Initial","Word vs FW",-8.58095545513234
"301",301,"Base_Test1_209","Test1",1,22,"right","female","1","31","Word vs Fin FW","tupiro.wav","tupiku.wav",NA,3,-0.257955755918198,"Familiar",1,21,1247,1,"Final","Word vs FW",-7.58095545513234
"302",302,"Base_Test1_209","Test1",1,22,"right","female","1","36","PW vs In FW","dotitu.wav","godoti.wav",2,4,-0.355968481618047,"Familiar",5,22,2648,0,"Initial","PW vs FW",-6.58095545513234
"303",303,"Base_Test1_209","Test1",1,22,"right","female","1","35","PW vs In FW","piropa.wav","gopiro.wav",2,3,-0.275458580478951,"Familiar",5,23,3341,0,"Initial","PW vs FW",-5.58095545513234
"304",304,"Base_Test1_209","Test1",1,22,"right","female","5","18","Word vs Med FW","bilaku.wav","bidaku.wav",NA,2,-1.60739314711274,"Familiar",1,24,2664,0,"Medial","Word vs FW",-4.58095545513234
"305",305,"Base_Test1_209","Test1",1,22,"right","female","1","24","Word vs Med FW","padoti.wav","padati.wav",NA,4,-1.38984163125101,"Familiar",1,25,1891,1,"Medial","Word vs FW",-3.58095545513234
"306",306,"Base_Test1_209","Test1",1,22,"right","female","1","52","PW vs Fin FW","dotigo.wav","padobu.wav",2,4,0.296611514613159,"Familiar",1,26,5937,1,"Final","PW vs FW",-2.58095545513234
"307",307,"Base_Test1_209","Test1",1,22,"right","female","1","50","PW vs Fin FW","dakutu.wav","bidaro.wav",2,2,-0.257955755918198,"Familiar",5,27,5445,0,"Final","PW vs FW",-1.58095545513234
"308",308,"Base_Test1_209","Test1",1,22,"right","female","1","43","PW vs Med FW","pirogo.wav","tularo.wav",2,3,1.10108532403706,"Familiar",1,28,1063,1,"Medial","PW vs FW",-0.580955455132344
"309",309,"Base_Test1_209","Test1",1,22,"right","female","1","49","PW vs Fin FW","labupa.wav","golati.wav",2,1,0.296611514613159,"Familiar",5,29,2365,0,"Final","PW vs FW",0.419044544867656
"310",310,"Base_Test1_209","Test1",1,22,"right","female","1","42","PW vs Med FW","dakutu.wav","bilaku.wav",2,2,-1.60739314711274,"Familiar",5,30,4789,0,"Medial","PW vs FW",1.41904454486766
"311",311,"Base_Test1_209","Test1",1,22,"right","female","5","46","PW vs Med FW","bipiku.wav","robida.wav",1,2,1.14212436080289,"Familiar",1,31,1474,0,"Medial","PW vs FW",2.41904454486766
"312",312,"Base_Test1_209","Test1",1,22,"right","female","5","56","PW vs Fin FW","padoro.wav","ropado.wav",1,4,1.35174727276499,"Familiar",1,32,5523,0,"Final","PW vs FW",3.41904454486766
"313",313,"Base_Test1_209","Test1",1,22,"right","female","5","2","Word vs PW","dakugo.wav","bidaku.wav",2,2,NA,"Familiar",1,33,1644,0,NA,"Word vs PW",4.41904454486766
"314",314,"Base_Test1_209","Test1",1,22,"right","female","1","5","Word vs PW","golabu.wav","rogola.wav",1,1,NA,"Familiar",1,34,4782,1,NA,"Word vs PW",5.41904454486766
"315",315,"Base_Test1_209","Test1",1,22,"right","female","1","32","Word vs Fin FW","padoti.wav","padoro.wav",NA,4,1.35174727276499,"Familiar",1,35,1067,1,"Final","Word vs FW",6.41904454486766
"316",316,"Base_Test1_209","Test1",1,22,"right","female","5","27","Word vs Fin FW","tupiti.wav","tupiro.wav",NA,3,1.35174727276499,"Familiar",1,36,2728,0,"Final","Word vs FW",7.41904454486766
"317",317,"Base_Test1_209","Test1",1,22,"right","female","5","4","Word vs PW","dotitu.wav","padoti.wav",2,4,NA,"Familiar",1,37,1849,0,NA,"Word vs PW",8.41904454486766
"318",318,"Base_Test1_209","Test1",1,22,"right","female","5","11","Word vs In FW","gopiro.wav","tupiro.wav",NA,3,-0.275458580478951,"Familiar",5,38,2836,1,"Initial","Word vs FW",9.41904454486766
"319",319,"Base_Test1_209","Test1",1,22,"right","female","1","14","Word vs In FW","bidaku.wav","tudaku.wav",NA,2,-0.266109272601177,"Familiar",1,39,953,1,"Initial","Word vs FW",10.4190445448677
"320",320,"Base_Test1_209","Test1",1,22,"right","female","5","12","Word vs In FW","godoti.wav","padoti.wav",NA,4,-0.355968481618047,"Familiar",1,40,1713,0,"Initial","Word vs FW",11.4190445448677
"321",321,"Base_Test1_209","Test1",1,22,"right","female","1","7","Word vs PW","tupiro.wav","titupi.wav",1,3,NA,"Familiar",1,41,1870,1,NA,"Word vs PW",12.4190445448677
"322",322,"Base_Test1_209","Test1",1,22,"right","female","5","1","Word vs PW","labubi.wav","golabu.wav",2,1,NA,"Familiar",5,42,3852,1,NA,"Word vs PW",13.4190445448677
"323",323,"Base_Test1_209","Test1",1,22,"right","female","1","30","Word vs Fin FW","bidaku.wav","bidabu.wav",NA,2,-1.34526988854491,"Familiar",5,43,2987,0,"Final","Word vs FW",14.4190445448677
"324",324,"Base_Test1_209","Test1",1,22,"right","female","5","47","PW vs Med FW","tudoro.wav","butupi.wav",1,3,0.291753243007115,"Familiar",5,44,3006,1,"Medial","PW vs FW",15.4190445448677
"325",325,"Base_Test1_209","Test1",1,22,"right","female","5","9","Word vs In FW","tulabu.wav","golabu.wav",NA,1,-0.275458580478951,"Familiar",1,45,2914,0,"Initial","Word vs FW",16.4190445448677
"326",326,"Base_Test1_209","Test1",1,22,"right","female","5","55","PW vs Fin FW","tupiku.wav","butupi.wav",1,3,-0.257955755918198,"Familiar",1,46,1782,0,"Final","PW vs FW",17.4190445448677
"327",327,"Base_Test1_209","Test1",1,22,"right","female","5","54","PW vs Fin FW","bidabu.wav","robida.wav",1,2,-1.34526988854491,"Familiar",1,47,2178,0,"Final","PW vs FW",18.4190445448677
"328",328,"Base_Test1_209","Test1",1,22,"right","female","5","40","PW vs In FW","tudoti.wav","kupado.wav",1,4,1.07074586855259,"Familiar",1,48,1090,0,"Initial","PW vs FW",19.4190445448677
"329",329,"Base_Test1_209","Test1",1,22,"right","female","1","22","Word vs Med FW","bidaku.wav","bipiku.wav",NA,2,1.14212436080289,"Familiar",1,49,1818,1,"Medial","Word vs FW",20.4190445448677
"330",330,"Base_Test1_209","Test1",1,22,"right","female","1","8","Word vs PW","padoti.wav","kupado.wav",1,4,NA,"Familiar",1,50,1323,1,NA,"Word vs PW",21.4190445448677
"331",331,"Base_Test1_209","Test1",1,22,"right","female","5","3","Word vs PW","piropa.wav","tupiro.wav",2,3,NA,"Familiar",5,51,5171,1,NA,"Word vs PW",22.4190445448677
"332",332,"Base_Test1_209","Test1",1,22,"right","female","1","33","PW vs In FW","labubi.wav","tulabu.wav",2,1,-0.275458580478951,"Familiar",1,52,1028,1,"Initial","PW vs FW",23.4190445448677
"333",333,"Base_Test1_209","Test1",1,22,"right","female","5","45","PW vs Med FW","godabu.wav","kugola.wav",1,1,-1.60739314711274,"Familiar",5,53,1553,1,"Medial","PW vs FW",24.4190445448677
"334",334,"Base_Test1_209","Test1",1,22,"right","female","1","41","PW vs Med FW","labupa.wav","gopibu.wav",2,1,1.10108532403706,"Familiar",1,54,1416,1,"Medial","PW vs FW",25.4190445448677
"335",335,"Base_Test1_209","Test1",1,22,"right","female","1","44","PW vs Med FW","dotigo.wav","papiti.wav",2,4,0.291753243007115,"Familiar",1,55,1283,1,"Medial","PW vs FW",26.4190445448677
"336",336,"Base_Test1_209","Test1",1,22,"right","female","5","37","PW vs In FW","bilabu.wav","rogola.wav",1,1,0.781961875630439,"Familiar",5,56,1251,1,"Initial","PW vs FW",27.4190445448677
"337",337,"Base_Test1_210","Test1",2,25,"right","female","5","38","PW vs In FW","tudaku.wav","bubida.wav",1,2,-0.266109272601177,"Familiar",1,1,1966,0,"Initial","PW vs FW",-27.5809554551323
"338",338,"Base_Test1_210","Test1",2,25,"right","female","5","11","Word vs In FW","gopiro.wav","tupiro.wav",NA,3,-0.275458580478951,"Familiar",5,2,2861,1,"Initial","Word vs FW",-26.5809554551323
"339",339,"Base_Test1_210","Test1",2,25,"right","female","1","32","Word vs Fin FW","padoti.wav","padoro.wav",NA,4,1.35174727276499,"Familiar",1,3,2053,1,"Final","Word vs FW",-25.5809554551323
"340",340,"Base_Test1_210","Test1",2,25,"right","female","5","27","Word vs Fin FW","tupiti.wav","tupiro.wav",NA,3,1.35174727276499,"Familiar",1,4,2795,0,"Final","Word vs FW",-24.5809554551323
"341",341,"Base_Test1_210","Test1",2,25,"right","female","1","21","Word vs Med FW","golabu.wav","godabu.wav",NA,1,-1.60739314711274,"Familiar",1,5,2055,1,"Medial","Word vs FW",-23.5809554551323
"342",342,"Base_Test1_210","Test1",2,25,"right","female","1","41","PW vs Med FW","labupa.wav","gopibu.wav",2,1,1.10108532403706,"Familiar",1,6,1075,1,"Medial","PW vs FW",-22.5809554551323
"343",343,"Base_Test1_210","Test1",2,25,"right","female","1","36","PW vs In FW","dotitu.wav","godoti.wav",2,4,-0.355968481618047,"Familiar",5,7,2286,0,"Initial","PW vs FW",-21.5809554551323
"344",344,"Base_Test1_210","Test1",2,25,"right","female","1","23","Word vs Med FW","tupiro.wav","tudoro.wav",NA,3,0.291753243007115,"Familiar",1,8,1440,1,"Medial","Word vs FW",-20.5809554551323
"345",345,"Base_Test1_210","Test1",2,25,"right","female","1","33","PW vs In FW","labubi.wav","tulabu.wav",2,1,-0.275458580478951,"Familiar",1,9,1624,1,"Initial","PW vs FW",-19.5809554551323
"346",346,"Base_Test1_210","Test1",2,25,"right","female","5","4","Word vs PW","dotitu.wav","padoti.wav",2,4,NA,"Familiar",5,10,1424,1,NA,"Word vs PW",-18.5809554551323
"347",347,"Base_Test1_210","Test1",2,25,"right","female","5","19","Word vs Med FW","tularo.wav","tupiro.wav",NA,3,1.10108532403706,"Familiar",5,11,1344,1,"Medial","Word vs FW",-17.5809554551323
"348",348,"Base_Test1_210","Test1",2,25,"right","female","1","50","PW vs Fin FW","dakutu.wav","bidaro.wav",2,2,-0.257955755918198,"Familiar",1,12,2450,1,"Final","PW vs FW",-16.5809554551323
"349",349,"Base_Test1_210","Test1",2,25,"right","female","5","1","Word vs PW","labubi.wav","golabu.wav",2,1,NA,"Familiar",5,13,2492,1,NA,"Word vs PW",-15.5809554551323
"350",350,"Base_Test1_210","Test1",2,25,"right","female","1","44","PW vs Med FW","dotigo.wav","papiti.wav",2,4,0.291753243007115,"Familiar",1,14,2447,1,"Medial","PW vs FW",-14.5809554551323
"351",351,"Base_Test1_210","Test1",2,25,"right","female","5","40","PW vs In FW","tudoti.wav","kupado.wav",1,4,1.07074586855259,"Familiar",1,15,1911,0,"Initial","PW vs FW",-13.5809554551323
"352",352,"Base_Test1_210","Test1",2,25,"right","female","1","30","Word vs Fin FW","bidaku.wav","bidabu.wav",NA,2,-1.34526988854491,"Familiar",5,16,5083,0,"Final","Word vs FW",-12.5809554551323
"353",353,"Base_Test1_210","Test1",2,25,"right","female","5","48","PW vs Med FW","padati.wav","ropado.wav",1,4,-1.38984163125101,"Familiar",1,17,1850,0,"Medial","PW vs FW",-11.5809554551323
"354",354,"Base_Test1_210","Test1",2,25,"right","female","1","52","PW vs Fin FW","dotigo.wav","padobu.wav",2,4,0.296611514613159,"Familiar",1,18,2093,1,"Final","PW vs FW",-10.5809554551323
"355",355,"Base_Test1_210","Test1",2,25,"right","female","5","3","Word vs PW","piropa.wav","tupiro.wav",2,3,NA,"Familiar",5,19,1057,1,NA,"Word vs PW",-9.58095545513234
"356",356,"Base_Test1_210","Test1",2,25,"right","female","5","9","Word vs In FW","tulabu.wav","golabu.wav",NA,1,-0.275458580478951,"Familiar",1,20,1573,0,"Initial","Word vs FW",-8.58095545513234
"357",357,"Base_Test1_210","Test1",2,25,"right","female","5","18","Word vs Med FW","bilaku.wav","bidaku.wav",NA,2,-1.60739314711274,"Familiar",1,21,1717,0,"Medial","Word vs FW",-7.58095545513234
"358",358,"Base_Test1_210","Test1",2,25,"right","female","1","42","PW vs Med FW","dakutu.wav","bilaku.wav",2,2,-1.60739314711274,"Familiar",5,22,1769,0,"Medial","PW vs FW",-6.58095545513234
"359",359,"Base_Test1_210","Test1",2,25,"right","female","1","51","PW vs Fin FW","pirogo.wav","tupiti.wav",2,3,1.35174727276499,"Familiar",1,23,1236,1,"Final","PW vs FW",-5.58095545513234
"360",360,"Base_Test1_210","Test1",2,25,"right","female","1","29","Word vs Fin FW","golabu.wav","golaku.wav",NA,1,-1.34526988854491,"Familiar",1,24,1711,1,"Final","Word vs FW",-4.58095545513234
"361",361,"Base_Test1_210","Test1",2,25,"right","female","1","14","Word vs In FW","bidaku.wav","tudaku.wav",NA,2,-0.266109272601177,"Familiar",1,25,991,1,"Initial","Word vs FW",-3.58095545513234
"362",362,"Base_Test1_210","Test1",2,25,"right","female","5","56","PW vs Fin FW","padoro.wav","ropado.wav",1,4,1.35174727276499,"Familiar",1,26,2602,0,"Final","PW vs FW",-2.58095545513234
"363",363,"Base_Test1_210","Test1",2,25,"right","female","5","10","Word vs In FW","godaku.wav","bidaku.wav",NA,2,0.781961875630439,"Familiar",1,27,1695,0,"Initial","Word vs FW",-1.58095545513234
"364",364,"Base_Test1_210","Test1",2,25,"right","female","1","24","Word vs Med FW","padoti.wav","padati.wav",NA,4,-1.38984163125101,"Familiar",1,28,1396,1,"Medial","Word vs FW",-0.580955455132344
"365",365,"Base_Test1_210","Test1",2,25,"right","female","5","46","PW vs Med FW","bipiku.wav","robida.wav",1,2,1.14212436080289,"Familiar",1,29,1570,0,"Medial","PW vs FW",0.419044544867656
"366",366,"Base_Test1_210","Test1",2,25,"right","female","5","39","PW vs In FW","papiro.wav","titupi.wav",1,3,1.07074586855259,"Familiar",1,30,1180,0,"Initial","PW vs FW",1.41904454486766
"367",367,"Base_Test1_210","Test1",2,25,"right","female","1","22","Word vs Med FW","bidaku.wav","bipiku.wav",NA,2,1.14212436080289,"Familiar",1,31,2018,1,"Medial","Word vs FW",2.41904454486766
"368",368,"Base_Test1_210","Test1",2,25,"right","female","5","37","PW vs In FW","bilabu.wav","rogola.wav",1,1,0.781961875630439,"Familiar",5,32,1106,1,"Initial","PW vs FW",3.41904454486766
"369",369,"Base_Test1_210","Test1",2,25,"right","female","1","31","Word vs Fin FW","tupiro.wav","tupiku.wav",NA,3,-0.257955755918198,"Familiar",1,33,1028,1,"Final","Word vs FW",4.41904454486766
"370",370,"Base_Test1_210","Test1",2,25,"right","female","1","6","Word vs PW","bidaku.wav","bubida.wav",1,2,NA,"Familiar",1,34,1352,1,NA,"Word vs PW",5.41904454486766
"371",371,"Base_Test1_210","Test1",2,25,"right","female","5","20","Word vs Med FW","papiti.wav","padoti.wav",NA,4,0.291753243007115,"Familiar",5,35,1130,1,"Medial","Word vs FW",6.41904454486766
"372",372,"Base_Test1_210","Test1",2,25,"right","female","5","17","Word vs Med FW","gopibu.wav","golabu.wav",NA,1,1.10108532403706,"Familiar",5,36,836,1,"Medial","Word vs FW",7.41904454486766
"373",373,"Base_Test1_210","Test1",2,25,"right","female","5","45","PW vs Med FW","godabu.wav","kugola.wav",1,1,-1.60739314711274,"Familiar",5,37,1149,1,"Medial","PW vs FW",8.41904454486766
"374",374,"Base_Test1_210","Test1",2,25,"right","female","5","2","Word vs PW","dakugo.wav","bidaku.wav",2,2,NA,"Familiar",5,38,1519,1,NA,"Word vs PW",9.41904454486766
"375",375,"Base_Test1_210","Test1",2,25,"right","female","1","5","Word vs PW","golabu.wav","rogola.wav",1,1,NA,"Familiar",5,39,2249,0,NA,"Word vs PW",10.4190445448677
"376",376,"Base_Test1_210","Test1",2,25,"right","female","5","47","PW vs Med FW","tudoro.wav","butupi.wav",1,3,0.291753243007115,"Familiar",1,40,1896,0,"Medial","PW vs FW",11.4190445448677
"377",377,"Base_Test1_210","Test1",2,25,"right","female","1","8","Word vs PW","padoti.wav","kupado.wav",1,4,NA,"Familiar",5,41,1463,0,NA,"Word vs PW",12.4190445448677
"378",378,"Base_Test1_210","Test1",2,25,"right","female","5","28","Word vs Fin FW","padobu.wav","padoti.wav",NA,4,0.296611514613159,"Familiar",5,42,3277,1,"Final","Word vs FW",13.4190445448677
"379",379,"Base_Test1_210","Test1",2,25,"right","female","5","53","PW vs Fin FW","golaku.wav","kugola.wav",1,1,-1.34526988854491,"Familiar",1,43,1754,0,"Final","PW vs FW",14.4190445448677
"380",380,"Base_Test1_210","Test1",2,25,"right","female","1","7","Word vs PW","tupiro.wav","titupi.wav",1,3,NA,"Familiar",1,44,945,1,NA,"Word vs PW",15.4190445448677
"381",381,"Base_Test1_210","Test1",2,25,"right","female","1","49","PW vs Fin FW","labupa.wav","golati.wav",2,1,0.296611514613159,"Familiar",5,45,3239,0,"Final","PW vs FW",16.4190445448677
"382",382,"Base_Test1_210","Test1",2,25,"right","female","5","55","PW vs Fin FW","tupiku.wav","butupi.wav",1,3,-0.257955755918198,"Familiar",1,46,2289,0,"Final","PW vs FW",17.4190445448677
"383",383,"Base_Test1_210","Test1",2,25,"right","female","1","15","Word vs In FW","tupiro.wav","papiro.wav",NA,3,1.07074586855259,"Familiar",1,47,994,1,"Initial","Word vs FW",18.4190445448677
"384",384,"Base_Test1_210","Test1",2,25,"right","female","1","16","Word vs In FW","padoti.wav","tudoti.wav",NA,4,1.07074586855259,"Familiar",5,48,2101,0,"Initial","Word vs FW",19.4190445448677
"385",385,"Base_Test1_210","Test1",2,25,"right","female","5","12","Word vs In FW","godoti.wav","padoti.wav",NA,4,-0.355968481618047,"Familiar",5,49,1349,1,"Initial","Word vs FW",20.4190445448677
"386",386,"Base_Test1_210","Test1",2,25,"right","female","5","25","Word vs Fin FW","golati.wav","golabu.wav",NA,1,0.296611514613159,"Familiar",1,50,1462,0,"Final","Word vs FW",21.4190445448677
"387",387,"Base_Test1_210","Test1",2,25,"right","female","5","26","Word vs Fin FW","bidaro.wav","bidaku.wav",NA,2,-0.257955755918198,"Familiar",5,51,2653,1,"Final","Word vs FW",22.4190445448677
"388",388,"Base_Test1_210","Test1",2,25,"right","female","1","13","Word vs In FW","golabu.wav","bilabu.wav",NA,1,0.781961875630439,"Familiar",1,52,1445,1,"Initial","Word vs FW",23.4190445448677
"389",389,"Base_Test1_210","Test1",2,25,"right","female","1","35","PW vs In FW","piropa.wav","gopiro.wav",2,3,-0.275458580478951,"Familiar",5,53,1322,0,"Initial","PW vs FW",24.4190445448677
"390",390,"Base_Test1_210","Test1",2,25,"right","female","5","54","PW vs Fin FW","bidabu.wav","robida.wav",1,2,-1.34526988854491,"Familiar",5,54,3214,1,"Final","PW vs FW",25.4190445448677
"391",391,"Base_Test1_210","Test1",2,25,"right","female","1","43","PW vs Med FW","pirogo.wav","tularo.wav",2,3,1.10108532403706,"Familiar",1,55,1376,1,"Medial","PW vs FW",26.4190445448677
"392",392,"Base_Test1_210","Test1",2,25,"right","female","1","34","PW vs In FW","dakugo.wav","godaku.wav",2,2,0.781961875630439,"Familiar",5,56,1802,0,"Initial","PW vs FW",27.4190445448677
"393",393,"Base_Test1_211","Test1",1,21,"right","female","5","10","Word vs In FW","godaku.wav","bidaku.wav",NA,2,0.781961875630439,"Familiar",5,1,2862,1,"Initial","Word vs FW",-27.5809554551323
"394",394,"Base_Test1_211","Test1",1,21,"right","female","5","39","PW vs In FW","papiro.wav","titupi.wav",1,3,1.07074586855259,"Familiar",1,2,1362,0,"Initial","PW vs FW",-26.5809554551323
"395",395,"Base_Test1_211","Test1",1,21,"right","female","5","55","PW vs Fin FW","tupiku.wav","butupi.wav",1,3,-0.257955755918198,"Familiar",1,3,2077,0,"Final","PW vs FW",-25.5809554551323
"396",396,"Base_Test1_211","Test1",1,21,"right","female","1","49","PW vs Fin FW","labupa.wav","golati.wav",2,1,0.296611514613159,"Familiar",1,4,1141,1,"Final","PW vs FW",-24.5809554551323
"397",397,"Base_Test1_211","Test1",1,21,"right","female","1","41","PW vs Med FW","labupa.wav","gopibu.wav",2,1,1.10108532403706,"Familiar",1,5,921,1,"Medial","PW vs FW",-23.5809554551323
"398",398,"Base_Test1_211","Test1",1,21,"right","female","1","7","Word vs PW","tupiro.wav","titupi.wav",1,3,NA,"Familiar",1,6,1116,1,NA,"Word vs PW",-22.5809554551323
"399",399,"Base_Test1_211","Test1",1,21,"right","female","5","18","Word vs Med FW","bilaku.wav","bidaku.wav",NA,2,-1.60739314711274,"Familiar",1,7,1278,0,"Medial","Word vs FW",-21.5809554551323
"400",400,"Base_Test1_211","Test1",1,21,"right","female","5","54","PW vs Fin FW","bidabu.wav","robida.wav",1,2,-1.34526988854491,"Familiar",5,8,1033,1,"Final","PW vs FW",-20.5809554551323
"401",401,"Base_Test1_211","Test1",1,21,"right","female","1","5","Word vs PW","golabu.wav","rogola.wav",1,1,NA,"Familiar",1,9,1036,1,NA,"Word vs PW",-19.5809554551323
"402",402,"Base_Test1_211","Test1",1,21,"right","female","1","13","Word vs In FW","golabu.wav","bilabu.wav",NA,1,0.781961875630439,"Familiar",1,10,1575,1,"Initial","Word vs FW",-18.5809554551323
"403",403,"Base_Test1_211","Test1",1,21,"right","female","1","50","PW vs Fin FW","dakutu.wav","bidaro.wav",2,2,-0.257955755918198,"Familiar",1,11,924,1,"Final","PW vs FW",-17.5809554551323
"404",404,"Base_Test1_211","Test1",1,21,"right","female","5","4","Word vs PW","dotitu.wav","padoti.wav",2,4,NA,"Familiar",5,12,1928,1,NA,"Word vs PW",-16.5809554551323
"405",405,"Base_Test1_211","Test1",1,21,"right","female","5","1","Word vs PW","labubi.wav","golabu.wav",2,1,NA,"Familiar",1,13,794,0,NA,"Word vs PW",-15.5809554551323
"406",406,"Base_Test1_211","Test1",1,21,"right","female","1","24","Word vs Med FW","padoti.wav","padati.wav",NA,4,-1.38984163125101,"Familiar",1,14,2067,1,"Medial","Word vs FW",-14.5809554551323
"407",407,"Base_Test1_211","Test1",1,21,"right","female","1","29","Word vs Fin FW","golabu.wav","golaku.wav",NA,1,-1.34526988854491,"Familiar",1,15,1390,1,"Final","Word vs FW",-13.5809554551323
"408",408,"Base_Test1_211","Test1",1,21,"right","female","5","53","PW vs Fin FW","golaku.wav","kugola.wav",1,1,-1.34526988854491,"Familiar",5,16,1191,1,"Final","PW vs FW",-12.5809554551323
"409",409,"Base_Test1_211","Test1",1,21,"right","female","5","37","PW vs In FW","bilabu.wav","rogola.wav",1,1,0.781961875630439,"Familiar",5,17,1232,1,"Initial","PW vs FW",-11.5809554551323
"410",410,"Base_Test1_211","Test1",1,21,"right","female","5","19","Word vs Med FW","tularo.wav","tupiro.wav",NA,3,1.10108532403706,"Familiar",1,18,1148,0,"Medial","Word vs FW",-10.5809554551323
"411",411,"Base_Test1_211","Test1",1,21,"right","female","5","26","Word vs Fin FW","bidaro.wav","bidaku.wav",NA,2,-0.257955755918198,"Familiar",1,19,2135,0,"Final","Word vs FW",-9.58095545513234
"412",412,"Base_Test1_211","Test1",1,21,"right","female","5","12","Word vs In FW","godoti.wav","padoti.wav",NA,4,-0.355968481618047,"Familiar",5,20,1344,1,"Initial","Word vs FW",-8.58095545513234
"413",413,"Base_Test1_211","Test1",1,21,"right","female","5","40","PW vs In FW","tudoti.wav","kupado.wav",1,4,1.07074586855259,"Familiar",1,21,2436,0,"Initial","PW vs FW",-7.58095545513234
"414",414,"Base_Test1_211","Test1",1,21,"right","female","1","44","PW vs Med FW","dotigo.wav","papiti.wav",2,4,0.291753243007115,"Familiar",5,22,1204,0,"Medial","PW vs FW",-6.58095545513234
"415",415,"Base_Test1_211","Test1",1,21,"right","female","5","46","PW vs Med FW","bipiku.wav","robida.wav",1,2,1.14212436080289,"Familiar",5,23,1138,1,"Medial","PW vs FW",-5.58095545513234
"416",416,"Base_Test1_211","Test1",1,21,"right","female","1","8","Word vs PW","padoti.wav","kupado.wav",1,4,NA,"Familiar",5,24,1207,0,NA,"Word vs PW",-4.58095545513234
"417",417,"Base_Test1_211","Test1",1,21,"right","female","5","11","Word vs In FW","gopiro.wav","tupiro.wav",NA,3,-0.275458580478951,"Familiar",5,25,1506,1,"Initial","Word vs FW",-3.58095545513234
"418",418,"Base_Test1_211","Test1",1,21,"right","female","1","43","PW vs Med FW","pirogo.wav","tularo.wav",2,3,1.10108532403706,"Familiar",5,26,1059,0,"Medial","PW vs FW",-2.58095545513234
"419",419,"Base_Test1_211","Test1",1,21,"right","female","1","34","PW vs In FW","dakugo.wav","godaku.wav",2,2,0.781961875630439,"Familiar",1,27,935,1,"Initial","PW vs FW",-1.58095545513234
"420",420,"Base_Test1_211","Test1",1,21,"right","female","1","21","Word vs Med FW","golabu.wav","godabu.wav",NA,1,-1.60739314711274,"Familiar",5,28,2582,0,"Medial","Word vs FW",-0.580955455132344
"421",421,"Base_Test1_211","Test1",1,21,"right","female","1","23","Word vs Med FW","tupiro.wav","tudoro.wav",NA,3,0.291753243007115,"Familiar",1,29,755,1,"Medial","Word vs FW",0.419044544867656
"422",422,"Base_Test1_211","Test1",1,21,"right","female","1","22","Word vs Med FW","bidaku.wav","bipiku.wav",NA,2,1.14212436080289,"Familiar",1,30,1178,1,"Medial","Word vs FW",1.41904454486766
"423",423,"Base_Test1_211","Test1",1,21,"right","female","5","45","PW vs Med FW","godabu.wav","kugola.wav",1,1,-1.60739314711274,"Familiar",5,31,1111,1,"Medial","PW vs FW",2.41904454486766
"424",424,"Base_Test1_211","Test1",1,21,"right","female","1","51","PW vs Fin FW","pirogo.wav","tupiti.wav",2,3,1.35174727276499,"Familiar",5,32,1774,0,"Final","PW vs FW",3.41904454486766
"425",425,"Base_Test1_211","Test1",1,21,"right","female","1","15","Word vs In FW","tupiro.wav","papiro.wav",NA,3,1.07074586855259,"Familiar",1,33,1362,1,"Initial","Word vs FW",4.41904454486766
"426",426,"Base_Test1_211","Test1",1,21,"right","female","5","3","Word vs PW","piropa.wav","tupiro.wav",2,3,NA,"Familiar",1,34,940,0,NA,"Word vs PW",5.41904454486766
"427",427,"Base_Test1_211","Test1",1,21,"right","female","1","30","Word vs Fin FW","bidaku.wav","bidabu.wav",NA,2,-1.34526988854491,"Familiar",1,35,1060,1,"Final","Word vs FW",6.41904454486766
"428",428,"Base_Test1_211","Test1",1,21,"right","female","1","16","Word vs In FW","padoti.wav","tudoti.wav",NA,4,1.07074586855259,"Familiar",1,36,1344,1,"Initial","Word vs FW",7.41904454486766
"429",429,"Base_Test1_211","Test1",1,21,"right","female","1","6","Word vs PW","bidaku.wav","bubida.wav",1,2,NA,"Familiar",5,37,861,0,NA,"Word vs PW",8.41904454486766
"430",430,"Base_Test1_211","Test1",1,21,"right","female","1","35","PW vs In FW","piropa.wav","gopiro.wav",2,3,-0.275458580478951,"Familiar",1,38,2535,1,"Initial","PW vs FW",9.41904454486766
"431",431,"Base_Test1_211","Test1",1,21,"right","female","1","14","Word vs In FW","bidaku.wav","tudaku.wav",NA,2,-0.266109272601177,"Familiar",1,39,1855,1,"Initial","Word vs FW",10.4190445448677
"432",432,"Base_Test1_211","Test1",1,21,"right","female","1","32","Word vs Fin FW","padoti.wav","padoro.wav",NA,4,1.35174727276499,"Familiar",1,40,1690,1,"Final","Word vs FW",11.4190445448677
"433",433,"Base_Test1_211","Test1",1,21,"right","female","5","28","Word vs Fin FW","padobu.wav","padoti.wav",NA,4,0.296611514613159,"Familiar",1,41,1164,0,"Final","Word vs FW",12.4190445448677
"434",434,"Base_Test1_211","Test1",1,21,"right","female","5","27","Word vs Fin FW","tupiti.wav","tupiro.wav",NA,3,1.35174727276499,"Familiar",5,42,1169,1,"Final","Word vs FW",13.4190445448677
"435",435,"Base_Test1_211","Test1",1,21,"right","female","5","48","PW vs Med FW","padati.wav","ropado.wav",1,4,-1.38984163125101,"Familiar",1,43,1140,0,"Medial","PW vs FW",14.4190445448677
"436",436,"Base_Test1_211","Test1",1,21,"right","female","5","17","Word vs Med FW","gopibu.wav","golabu.wav",NA,1,1.10108532403706,"Familiar",1,44,1533,0,"Medial","Word vs FW",15.4190445448677
"437",437,"Base_Test1_211","Test1",1,21,"right","female","5","25","Word vs Fin FW","golati.wav","golabu.wav",NA,1,0.296611514613159,"Familiar",5,45,1992,1,"Final","Word vs FW",16.4190445448677
"438",438,"Base_Test1_211","Test1",1,21,"right","female","5","56","PW vs Fin FW","padoro.wav","ropado.wav",1,4,1.35174727276499,"Familiar",5,46,1491,1,"Final","PW vs FW",17.4190445448677
"439",439,"Base_Test1_211","Test1",1,21,"right","female","5","20","Word vs Med FW","papiti.wav","padoti.wav",NA,4,0.291753243007115,"Familiar",5,47,1307,1,"Medial","Word vs FW",18.4190445448677
"440",440,"Base_Test1_211","Test1",1,21,"right","female","5","47","PW vs Med FW","tudoro.wav","butupi.wav",1,3,0.291753243007115,"Familiar",5,48,1358,1,"Medial","PW vs FW",19.4190445448677
"441",441,"Base_Test1_211","Test1",1,21,"right","female","1","31","Word vs Fin FW","tupiro.wav","tupiku.wav",NA,3,-0.257955755918198,"Familiar",1,49,1421,1,"Final","Word vs FW",20.4190445448677
"442",442,"Base_Test1_211","Test1",1,21,"right","female","1","36","PW vs In FW","dotitu.wav","godoti.wav",2,4,-0.355968481618047,"Familiar",1,50,1374,1,"Initial","PW vs FW",21.4190445448677
"443",443,"Base_Test1_211","Test1",1,21,"right","female","1","42","PW vs Med FW","dakutu.wav","bilaku.wav",2,2,-1.60739314711274,"Familiar",5,51,2075,0,"Medial","PW vs FW",22.4190445448677
"444",444,"Base_Test1_211","Test1",1,21,"right","female","1","33","PW vs In FW","labubi.wav","tulabu.wav",2,1,-0.275458580478951,"Familiar",5,52,2821,0,"Initial","PW vs FW",23.4190445448677
"445",445,"Base_Test1_211","Test1",1,21,"right","female","5","38","PW vs In FW","tudaku.wav","bubida.wav",1,2,-0.266109272601177,"Familiar",5,53,1412,1,"Initial","PW vs FW",24.4190445448677
"446",446,"Base_Test1_211","Test1",1,21,"right","female","5","2","Word vs PW","dakugo.wav","bidaku.wav",2,2,NA,"Familiar",1,54,881,0,NA,"Word vs PW",25.4190445448677
"447",447,"Base_Test1_211","Test1",1,21,"right","female","1","52","PW vs Fin FW","dotigo.wav","padobu.wav",2,4,0.296611514613159,"Familiar",1,55,1056,1,"Final","PW vs FW",26.4190445448677
"448",448,"Base_Test1_211","Test1",1,21,"right","female","5","9","Word vs In FW","tulabu.wav","golabu.wav",NA,1,-0.275458580478951,"Familiar",1,56,834,0,"Initial","Word vs FW",27.4190445448677
"449",449,"Base_Test1_212","Test1",2,20,"right","male","5","12","Word vs In FW","godoti.wav","padoti.wav",NA,4,-0.355968481618047,"Familiar",5,1,440,1,"Initial","Word vs FW",-27.5809554551323
"450",450,"Base_Test1_212","Test1",2,20,"right","male","5","10","Word vs In FW","godaku.wav","bidaku.wav",NA,2,0.781961875630439,"Familiar",1,2,1001,0,"Initial","Word vs FW",-26.5809554551323
"451",451,"Base_Test1_212","Test1",2,20,"right","male","1","23","Word vs Med FW","tupiro.wav","tudoro.wav",NA,3,0.291753243007115,"Familiar",5,3,298,0,"Medial","Word vs FW",-25.5809554551323
"452",452,"Base_Test1_212","Test1",2,20,"right","male","1","21","Word vs Med FW","golabu.wav","godabu.wav",NA,1,-1.60739314711274,"Familiar",5,4,895,0,"Medial","Word vs FW",-24.5809554551323
"453",453,"Base_Test1_212","Test1",2,20,"right","male","1","8","Word vs PW","padoti.wav","kupado.wav",1,4,NA,"Familiar",5,5,1284,0,NA,"Word vs PW",-23.5809554551323
"454",454,"Base_Test1_212","Test1",2,20,"right","male","1","30","Word vs Fin FW","bidaku.wav","bidabu.wav",NA,2,-1.34526988854491,"Familiar",1,6,1098,1,"Final","Word vs FW",-22.5809554551323
"455",455,"Base_Test1_212","Test1",2,20,"right","male","5","39","PW vs In FW","papiro.wav","titupi.wav",1,3,1.07074586855259,"Familiar",5,7,1055,1,"Initial","PW vs FW",-21.5809554551323
"456",456,"Base_Test1_212","Test1",2,20,"right","male","1","31","Word vs Fin FW","tupiro.wav","tupiku.wav",NA,3,-0.257955755918198,"Familiar",1,8,1829,1,"Final","Word vs FW",-20.5809554551323
"457",457,"Base_Test1_212","Test1",2,20,"right","male","5","40","PW vs In FW","tudoti.wav","kupado.wav",1,4,1.07074586855259,"Familiar",5,9,941,1,"Initial","PW vs FW",-19.5809554551323
"458",458,"Base_Test1_212","Test1",2,20,"right","male","1","6","Word vs PW","bidaku.wav","bubida.wav",1,2,NA,"Familiar",5,10,1291,0,NA,"Word vs PW",-18.5809554551323
"459",459,"Base_Test1_212","Test1",2,20,"right","male","5","56","PW vs Fin FW","padoro.wav","ropado.wav",1,4,1.35174727276499,"Familiar",1,11,1028,0,"Final","PW vs FW",-17.5809554551323
"460",460,"Base_Test1_212","Test1",2,20,"right","male","1","24","Word vs Med FW","padoti.wav","padati.wav",NA,4,-1.38984163125101,"Familiar",5,12,1038,0,"Medial","Word vs FW",-16.5809554551323
"461",461,"Base_Test1_212","Test1",2,20,"right","male","5","26","Word vs Fin FW","bidaro.wav","bidaku.wav",NA,2,-0.257955755918198,"Familiar",5,13,1100,1,"Final","Word vs FW",-15.5809554551323
"462",462,"Base_Test1_212","Test1",2,20,"right","male","5","27","Word vs Fin FW","tupiti.wav","tupiro.wav",NA,3,1.35174727276499,"Familiar",1,14,1215,0,"Final","Word vs FW",-14.5809554551323
"463",463,"Base_Test1_212","Test1",2,20,"right","male","1","49","PW vs Fin FW","labupa.wav","golati.wav",2,1,0.296611514613159,"Familiar",5,15,1014,0,"Final","PW vs FW",-13.5809554551323
"464",464,"Base_Test1_212","Test1",2,20,"right","male","1","42","PW vs Med FW","dakutu.wav","bilaku.wav",2,2,-1.60739314711274,"Familiar",1,16,863,1,"Medial","PW vs FW",-12.5809554551323
"465",465,"Base_Test1_212","Test1",2,20,"right","male","1","5","Word vs PW","golabu.wav","rogola.wav",1,1,NA,"Familiar",5,17,1033,0,NA,"Word vs PW",-11.5809554551323
"466",466,"Base_Test1_212","Test1",2,20,"right","male","1","33","PW vs In FW","labubi.wav","tulabu.wav",2,1,-0.275458580478951,"Familiar",5,18,948,0,"Initial","PW vs FW",-10.5809554551323
"467",467,"Base_Test1_212","Test1",2,20,"right","male","5","28","Word vs Fin FW","padobu.wav","padoti.wav",NA,4,0.296611514613159,"Familiar",1,19,1010,0,"Final","Word vs FW",-9.58095545513234
"468",468,"Base_Test1_212","Test1",2,20,"right","male","1","7","Word vs PW","tupiro.wav","titupi.wav",1,3,NA,"Familiar",5,20,808,0,NA,"Word vs PW",-8.58095545513234
"469",469,"Base_Test1_212","Test1",2,20,"right","male","1","52","PW vs Fin FW","dotigo.wav","padobu.wav",2,4,0.296611514613159,"Familiar",5,21,883,0,"Final","PW vs FW",-7.58095545513234
"470",470,"Base_Test1_212","Test1",2,20,"right","male","1","43","PW vs Med FW","pirogo.wav","tularo.wav",2,3,1.10108532403706,"Familiar",5,22,953,0,"Medial","PW vs FW",-6.58095545513234
"471",471,"Base_Test1_212","Test1",2,20,"right","male","5","25","Word vs Fin FW","golati.wav","golabu.wav",NA,1,0.296611514613159,"Familiar",1,23,879,0,"Final","Word vs FW",-5.58095545513234
"472",472,"Base_Test1_212","Test1",2,20,"right","male","1","41","PW vs Med FW","labupa.wav","gopibu.wav",2,1,1.10108532403706,"Familiar",5,24,954,0,"Medial","PW vs FW",-4.58095545513234
"473",473,"Base_Test1_212","Test1",2,20,"right","male","1","32","Word vs Fin FW","padoti.wav","padoro.wav",NA,4,1.35174727276499,"Familiar",5,25,857,0,"Final","Word vs FW",-3.58095545513234
"474",474,"Base_Test1_212","Test1",2,20,"right","male","5","55","PW vs Fin FW","tupiku.wav","butupi.wav",1,3,-0.257955755918198,"Familiar",5,26,849,1,"Final","PW vs FW",-2.58095545513234
"475",475,"Base_Test1_212","Test1",2,20,"right","male","1","14","Word vs In FW","bidaku.wav","tudaku.wav",NA,2,-0.266109272601177,"Familiar",1,27,977,1,"Initial","Word vs FW",-1.58095545513234
"476",476,"Base_Test1_212","Test1",2,20,"right","male","1","13","Word vs In FW","golabu.wav","bilabu.wav",NA,1,0.781961875630439,"Familiar",1,28,949,1,"Initial","Word vs FW",-0.580955455132344
"477",477,"Base_Test1_212","Test1",2,20,"right","male","5","20","Word vs Med FW","papiti.wav","padoti.wav",NA,4,0.291753243007115,"Familiar",5,29,1086,1,"Medial","Word vs FW",0.419044544867656
"478",478,"Base_Test1_212","Test1",2,20,"right","male","1","15","Word vs In FW","tupiro.wav","papiro.wav",NA,3,1.07074586855259,"Familiar",5,30,926,0,"Initial","Word vs FW",1.41904454486766
"479",479,"Base_Test1_212","Test1",2,20,"right","male","1","22","Word vs Med FW","bidaku.wav","bipiku.wav",NA,2,1.14212436080289,"Familiar",1,31,974,1,"Medial","Word vs FW",2.41904454486766
"480",480,"Base_Test1_212","Test1",2,20,"right","male","5","2","Word vs PW","dakugo.wav","bidaku.wav",2,2,NA,"Familiar",5,32,948,1,NA,"Word vs PW",3.41904454486766
"481",481,"Base_Test1_212","Test1",2,20,"right","male","1","44","PW vs Med FW","dotigo.wav","papiti.wav",2,4,0.291753243007115,"Familiar",1,33,931,1,"Medial","PW vs FW",4.41904454486766
"482",482,"Base_Test1_212","Test1",2,20,"right","male","5","37","PW vs In FW","bilabu.wav","rogola.wav",1,1,0.781961875630439,"Familiar",5,34,920,1,"Initial","PW vs FW",5.41904454486766
"483",483,"Base_Test1_212","Test1",2,20,"right","male","1","29","Word vs Fin FW","golabu.wav","golaku.wav",NA,1,-1.34526988854491,"Familiar",5,35,852,0,"Final","Word vs FW",6.41904454486766
"484",484,"Base_Test1_212","Test1",2,20,"right","male","5","18","Word vs Med FW","bilaku.wav","bidaku.wav",NA,2,-1.60739314711274,"Familiar",5,36,878,1,"Medial","Word vs FW",7.41904454486766
"485",485,"Base_Test1_212","Test1",2,20,"right","male","5","9","Word vs In FW","tulabu.wav","golabu.wav",NA,1,-0.275458580478951,"Familiar",5,37,853,1,"Initial","Word vs FW",8.41904454486766
"486",486,"Base_Test1_212","Test1",2,20,"right","male","1","51","PW vs Fin FW","pirogo.wav","tupiti.wav",2,3,1.35174727276499,"Familiar",5,38,865,0,"Final","PW vs FW",9.41904454486766
"487",487,"Base_Test1_212","Test1",2,20,"right","male","5","19","Word vs Med FW","tularo.wav","tupiro.wav",NA,3,1.10108532403706,"Familiar",1,39,973,0,"Medial","Word vs FW",10.4190445448677
"488",488,"Base_Test1_212","Test1",2,20,"right","male","1","35","PW vs In FW","piropa.wav","gopiro.wav",2,3,-0.275458580478951,"Familiar",5,40,887,0,"Initial","PW vs FW",11.4190445448677
"489",489,"Base_Test1_212","Test1",2,20,"right","male","1","16","Word vs In FW","padoti.wav","tudoti.wav",NA,4,1.07074586855259,"Familiar",1,41,984,1,"Initial","Word vs FW",12.4190445448677
"490",490,"Base_Test1_212","Test1",2,20,"right","male","5","4","Word vs PW","dotitu.wav","padoti.wav",2,4,NA,"Familiar",5,42,1040,1,NA,"Word vs PW",13.4190445448677
"491",491,"Base_Test1_212","Test1",2,20,"right","male","5","54","PW vs Fin FW","bidabu.wav","robida.wav",1,2,-1.34526988854491,"Familiar",1,43,958,0,"Final","PW vs FW",14.4190445448677
"492",492,"Base_Test1_212","Test1",2,20,"right","male","1","36","PW vs In FW","dotitu.wav","godoti.wav",2,4,-0.355968481618047,"Familiar",5,44,1352,0,"Initial","PW vs FW",15.4190445448677
"493",493,"Base_Test1_212","Test1",2,20,"right","male","5","46","PW vs Med FW","bipiku.wav","robida.wav",1,2,1.14212436080289,"Familiar",5,45,1360,1,"Medial","PW vs FW",16.4190445448677
"494",494,"Base_Test1_212","Test1",2,20,"right","male","5","11","Word vs In FW","gopiro.wav","tupiro.wav",NA,3,-0.275458580478951,"Familiar",5,46,278,1,"Initial","Word vs FW",17.4190445448677
"495",495,"Base_Test1_212","Test1",2,20,"right","male","1","34","PW vs In FW","dakugo.wav","godaku.wav",2,2,0.781961875630439,"Familiar",5,47,810,0,"Initial","PW vs FW",18.4190445448677
"496",496,"Base_Test1_212","Test1",2,20,"right","male","5","45","PW vs Med FW","godabu.wav","kugola.wav",1,1,-1.60739314711274,"Familiar",5,48,919,1,"Medial","PW vs FW",19.4190445448677
"497",497,"Base_Test1_212","Test1",2,20,"right","male","5","3","Word vs PW","piropa.wav","tupiro.wav",2,3,NA,"Familiar",5,49,1004,1,NA,"Word vs PW",20.4190445448677
"498",498,"Base_Test1_212","Test1",2,20,"right","male","5","17","Word vs Med FW","gopibu.wav","golabu.wav",NA,1,1.10108532403706,"Familiar",1,50,918,0,"Medial","Word vs FW",21.4190445448677
"499",499,"Base_Test1_212","Test1",2,20,"right","male","5","38","PW vs In FW","tudaku.wav","bubida.wav",1,2,-0.266109272601177,"Familiar",1,51,901,0,"Initial","PW vs FW",22.4190445448677
"500",500,"Base_Test1_212","Test1",2,20,"right","male","1","50","PW vs Fin FW","dakutu.wav","bidaro.wav",2,2,-0.257955755918198,"Familiar",5,52,911,0,"Final","PW vs FW",23.4190445448677
"501",501,"Base_Test1_212","Test1",2,20,"right","male","5","48","PW vs Med FW","padati.wav","ropado.wav",1,4,-1.38984163125101,"Familiar",1,53,925,0,"Medial","PW vs FW",24.4190445448677
"502",502,"Base_Test1_212","Test1",2,20,"right","male","5","47","PW vs Med FW","tudoro.wav","butupi.wav",1,3,0.291753243007115,"Familiar",1,54,868,0,"Medial","PW vs FW",25.4190445448677
"503",503,"Base_Test1_212","Test1",2,20,"right","male","5","1","Word vs PW","labubi.wav","golabu.wav",2,1,NA,"Familiar",1,55,944,0,NA,"Word vs PW",26.4190445448677
"504",504,"Base_Test1_212","Test1",2,20,"right","male","5","53","PW vs Fin FW","golaku.wav","kugola.wav",1,1,-1.34526988854491,"Familiar",1,56,980,0,"Final","PW vs FW",27.4190445448677
"505",505,"Base_Test1_213","Test1",1,23,"right","female","5","26","Word vs Fin FW","bidaro.wav","bidaku.wav",NA,2,-0.257955755918198,"Familiar",1,1,1897,0,"Final","Word vs FW",-27.5809554551323
"506",506,"Base_Test1_213","Test1",1,23,"right","female","1","24","Word vs Med FW","padoti.wav","padati.wav",NA,4,-1.38984163125101,"Familiar",1,2,1278,1,"Medial","Word vs FW",-26.5809554551323
"507",507,"Base_Test1_213","Test1",1,23,"right","female","5","45","PW vs Med FW","godabu.wav","kugola.wav",1,1,-1.60739314711274,"Familiar",5,3,1257,1,"Medial","PW vs FW",-25.5809554551323
"508",508,"Base_Test1_213","Test1",1,23,"right","female","1","14","Word vs In FW","bidaku.wav","tudaku.wav",NA,2,-0.266109272601177,"Familiar",5,4,1527,0,"Initial","Word vs FW",-24.5809554551323
"509",509,"Base_Test1_213","Test1",1,23,"right","female","1","7","Word vs PW","tupiro.wav","titupi.wav",1,3,NA,"Familiar",1,5,892,1,NA,"Word vs PW",-23.5809554551323
"510",510,"Base_Test1_213","Test1",1,23,"right","female","1","22","Word vs Med FW","bidaku.wav","bipiku.wav",NA,2,1.14212436080289,"Familiar",1,6,1263,1,"Medial","Word vs FW",-22.5809554551323
"511",511,"Base_Test1_213","Test1",1,23,"right","female","1","5","Word vs PW","golabu.wav","rogola.wav",1,1,NA,"Familiar",5,7,1004,0,NA,"Word vs PW",-21.5809554551323
"512",512,"Base_Test1_213","Test1",1,23,"right","female","1","13","Word vs In FW","golabu.wav","bilabu.wav",NA,1,0.781961875630439,"Familiar",1,8,1042,1,"Initial","Word vs FW",-20.5809554551323
"513",513,"Base_Test1_213","Test1",1,23,"right","female","5","9","Word vs In FW","tulabu.wav","golabu.wav",NA,1,-0.275458580478951,"Familiar",5,9,821,1,"Initial","Word vs FW",-19.5809554551323
"514",514,"Base_Test1_213","Test1",1,23,"right","female","1","29","Word vs Fin FW","golabu.wav","golaku.wav",NA,1,-1.34526988854491,"Familiar",1,10,947,1,"Final","Word vs FW",-18.5809554551323
"515",515,"Base_Test1_213","Test1",1,23,"right","female","1","16","Word vs In FW","padoti.wav","tudoti.wav",NA,4,1.07074586855259,"Familiar",1,11,790,1,"Initial","Word vs FW",-17.5809554551323
"516",516,"Base_Test1_213","Test1",1,23,"right","female","1","32","Word vs Fin FW","padoti.wav","padoro.wav",NA,4,1.35174727276499,"Familiar",5,12,1302,0,"Final","Word vs FW",-16.5809554551323
"517",517,"Base_Test1_213","Test1",1,23,"right","female","5","48","PW vs Med FW","padati.wav","ropado.wav",1,4,-1.38984163125101,"Familiar",5,13,1299,1,"Medial","PW vs FW",-15.5809554551323
"518",518,"Base_Test1_213","Test1",1,23,"right","female","5","27","Word vs Fin FW","tupiti.wav","tupiro.wav",NA,3,1.35174727276499,"Familiar",5,14,833,1,"Final","Word vs FW",-14.5809554551323
"519",519,"Base_Test1_213","Test1",1,23,"right","female","1","49","PW vs Fin FW","labupa.wav","golati.wav",2,1,0.296611514613159,"Familiar",5,15,901,0,"Final","PW vs FW",-13.5809554551323
"520",520,"Base_Test1_213","Test1",1,23,"right","female","1","21","Word vs Med FW","golabu.wav","godabu.wav",NA,1,-1.60739314711274,"Familiar",1,16,1110,1,"Medial","Word vs FW",-12.5809554551323
"521",521,"Base_Test1_213","Test1",1,23,"right","female","1","41","PW vs Med FW","labupa.wav","gopibu.wav",2,1,1.10108532403706,"Familiar",1,17,1083,1,"Medial","PW vs FW",-11.5809554551323
"522",522,"Base_Test1_213","Test1",1,23,"right","female","5","18","Word vs Med FW","bilaku.wav","bidaku.wav",NA,2,-1.60739314711274,"Familiar",5,18,1192,1,"Medial","Word vs FW",-10.5809554551323
"523",523,"Base_Test1_213","Test1",1,23,"right","female","5","2","Word vs PW","dakugo.wav","bidaku.wav",2,2,NA,"Familiar",1,19,986,0,NA,"Word vs PW",-9.58095545513234
"524",524,"Base_Test1_213","Test1",1,23,"right","female","1","33","PW vs In FW","labubi.wav","tulabu.wav",2,1,-0.275458580478951,"Familiar",1,20,1395,1,"Initial","PW vs FW",-8.58095545513234
"525",525,"Base_Test1_213","Test1",1,23,"right","female","1","34","PW vs In FW","dakugo.wav","godaku.wav",2,2,0.781961875630439,"Familiar",1,21,830,1,"Initial","PW vs FW",-7.58095545513234
"526",526,"Base_Test1_213","Test1",1,23,"right","female","1","50","PW vs Fin FW","dakutu.wav","bidaro.wav",2,2,-0.257955755918198,"Familiar",5,22,843,0,"Final","PW vs FW",-6.58095545513234
"527",527,"Base_Test1_213","Test1",1,23,"right","female","5","54","PW vs Fin FW","bidabu.wav","robida.wav",1,2,-1.34526988854491,"Familiar",5,23,819,1,"Final","PW vs FW",-5.58095545513234
"528",528,"Base_Test1_213","Test1",1,23,"right","female","5","3","Word vs PW","piropa.wav","tupiro.wav",2,3,NA,"Familiar",1,24,876,0,NA,"Word vs PW",-4.58095545513234
"529",529,"Base_Test1_213","Test1",1,23,"right","female","1","36","PW vs In FW","dotitu.wav","godoti.wav",2,4,-0.355968481618047,"Familiar",5,25,755,0,"Initial","PW vs FW",-3.58095545513234
"530",530,"Base_Test1_213","Test1",1,23,"right","female","5","46","PW vs Med FW","bipiku.wav","robida.wav",1,2,1.14212436080289,"Familiar",5,26,963,1,"Medial","PW vs FW",-2.58095545513234
"531",531,"Base_Test1_213","Test1",1,23,"right","female","5","25","Word vs Fin FW","golati.wav","golabu.wav",NA,1,0.296611514613159,"Familiar",1,27,1006,0,"Final","Word vs FW",-1.58095545513234
"532",532,"Base_Test1_213","Test1",1,23,"right","female","1","31","Word vs Fin FW","tupiro.wav","tupiku.wav",NA,3,-0.257955755918198,"Familiar",1,28,1020,1,"Final","Word vs FW",-0.580955455132344
