"","X","SubjectID","ExperimentName","Session","Age","Handedness","Sex","CRESP","List2","PairCode","Sound1","Sound2","PWType","WordType","zMFCC","Condition","RESP","Trial","RT","ACC","SyllPos","TrialType","c_Trial"
"1",12153,"Base_NNL_801","NNL",1,17,"right","female","1","47","PW vs Med FW","labupa.wav","gopibu.wav",2,1,0.681696431891337,"Unfamiliar",1,1,1294,1,"Medial","PW vs FW",-27.5809554551323
"2",12154,"Base_NNL_801","NNL",1,17,"right","female","5","37","PW vs In FW","tulabu.wav","labubi.wav",2,1,-0.539772457704594,"Unfamiliar",1,2,1523,0,"Initial","PW vs FW",-26.5809554551323
"3",12155,"Base_NNL_801","NNL",1,17,"right","female","1","9","Word vs In FW","golabu.wav","bilabu.wav",NA,1,-1.23434873110733,"Unfamiliar",5,3,1101,0,"Initial","Word vs FW",-25.5809554551323
"4",12156,"Base_NNL_801","NNL",1,17,"right","female","1","20","Word vs Med FW","padoti.wav","padati.wav",NA,4,1.5060831821829,"Unfamiliar",1,4,1484,1,"Medial","Word vs FW",-24.5809554551323
"5",12157,"Base_NNL_801","NNL",1,17,"right","female","1","56","PW vs Fin FW","dotigo.wav","padobu.wav",2,4,1.07824849447084,"Unfamiliar",1,5,1206,1,"Final","PW vs FW",-23.5809554551323
"6",12158,"Base_NNL_801","NNL",1,17,"right","female","5","13","Word vs In FW","tulabu.wav","golabu.wav",NA,1,-0.539772457704594,"Unfamiliar",5,6,1482,1,"Initial","Word vs FW",-22.5809554551323
"7",12159,"Base_NNL_801","NNL",1,17,"right","female","5","54","PW vs Fin FW","tupiti.wav","pirogo.wav",2,3,0.820638616656125,"Unfamiliar",1,7,1561,0,"Final","PW vs FW",-21.5809554551323
"8",12160,"Base_NNL_801","NNL",1,17,"right","female","5","35","PW vs In FW","tudoti.wav","kupado.wav",1,4,0.429540957672635,"Unfamiliar",1,8,1750,0,"Initial","PW vs FW",-20.5809554551323
"9",12161,"Base_NNL_801","NNL",1,17,"right","female","1","44","PW vs Med FW","ropado.wav","padati.wav",1,4,1.5060831821829,"Unfamiliar",1,9,1676,1,"Medial","PW vs FW",-19.5809554551323
"10",12162,"Base_NNL_801","NNL",1,17,"right","female","5","41","PW vs Med FW","godabu.wav","kugola.wav",1,1,-1.31107860864913,"Unfamiliar",1,10,1256,0,"Medial","PW vs FW",-18.5809554551323
"11",12163,"Base_NNL_801","NNL",1,17,"right","female","5","29","Word vs Fin FW","golati.wav","golabu.wav",NA,1,1.07824849447084,"Unfamiliar",5,11,1129,1,"Final","Word vs FW",-17.5809554551323
"12",12164,"Base_NNL_801","NNL",1,17,"right","female","1","27","Word vs Fin FW","tupiro.wav","tupiku.wav",NA,3,1.3494944975745,"Unfamiliar",1,12,1487,1,"Final","Word vs FW",-16.5809554551323
"13",12165,"Base_NNL_801","NNL",1,17,"right","female","5","31","Word vs Fin FW","tupiti.wav","tupiro.wav",NA,3,0.820638616656125,"Unfamiliar",1,13,1526,0,"Final","Word vs FW",-15.5809554551323
"14",12166,"Base_NNL_801","NNL",1,17,"right","female","1","51","PW vs Fin FW","kugola.wav","golaku.wav",1,1,-1.22985896637136,"Unfamiliar",1,14,1202,1,"Final","PW vs FW",-14.5809554551323
"15",12167,"Base_NNL_801","NNL",1,17,"right","female","5","33","PW vs In FW","tudaku.wav","bubida.wav",1,2,-0.625245435400968,"Unfamiliar",5,15,1131,1,"Initial","PW vs FW",-13.5809554551323
"16",12168,"Base_NNL_801","NNL",1,17,"right","female","5","24","Word vs Med FW","papiti.wav","padoti.wav",NA,4,-0.996502409603964,"Unfamiliar",5,16,1810,1,"Medial","Word vs FW",-12.5809554551323
"17",12169,"Base_NNL_801","NNL",1,17,"right","female","5","21","Word vs Med FW","gopibu.wav","golabu.wav",NA,1,0.681696431891337,"Unfamiliar",5,17,1579,1,"Medial","Word vs FW",-11.5809554551323
"18",12170,"Base_NNL_801","NNL",1,17,"right","female","5","15","Word vs In FW","gopiro.wav","tupiro.wav",NA,3,-0.539772457704594,"Unfamiliar",1,18,1547,0,"Initial","Word vs FW",-10.5809554551323
"19",12171,"Base_NNL_801","NNL",1,17,"right","female","1","5","Word vs PW","bidaku.wav","dakugo.wav",2,2,NA,"Unfamiliar",1,19,1559,1,NA,"Word vs PW",-9.58095545513234
"20",12172,"Base_NNL_801","NNL",1,17,"right","female","5","49","PW vs Fin FW","bidabu.wav","robida.wav",1,2,-1.22985896637136,"Unfamiliar",5,20,2781,1,"Final","PW vs FW",-8.58095545513234
"21",12173,"Base_NNL_801","NNL",1,17,"right","female","1","39","PW vs In FW","dakugo.wav","godaku.wav",2,2,-1.23434873110733,"Unfamiliar",1,21,1396,1,"Initial","PW vs FW",-7.58095545513234
"22",12174,"Base_NNL_801","NNL",1,17,"right","female","1","25","Word vs Fin FW","golabu.wav","golaku.wav",NA,1,-1.22985896637136,"Unfamiliar",1,22,1465,1,"Final","Word vs FW",-6.58095545513234
"23",12175,"Base_NNL_801","NNL",1,17,"right","female","5","3","Word vs PW","bubida.wav","bidaku.wav",1,2,NA,"Unfamiliar",1,23,1972,0,NA,"Word vs PW",-5.58095545513234
"24",12176,"Base_NNL_801","NNL",1,17,"right","female","5","46","PW vs Med FW","papiti.wav","dotigo.wav",2,4,-0.996502409603964,"Unfamiliar",5,24,1187,1,"Medial","PW vs FW",-4.58095545513234
"25",12177,"Base_NNL_801","NNL",1,17,"right","female","1","6","Word vs PW","padoti.wav","dotitu.wav",2,4,NA,"Unfamiliar",1,25,1528,1,NA,"Word vs PW",-3.58095545513234
"26",12178,"Base_NNL_801","NNL",1,17,"right","female","5","7","Word vs PW","labubi.wav","golabu.wav",2,1,NA,"Unfamiliar",1,26,1642,0,NA,"Word vs PW",-2.58095545513234
"27",12179,"Base_NNL_801","NNL",1,17,"right","female","5","16","Word vs In FW","godoti.wav","padoti.wav",NA,4,0.266764696187699,"Unfamiliar",5,27,1803,1,"Initial","Word vs FW",-1.58095545513234
"28",12180,"Base_NNL_801","NNL",1,17,"right","female","1","28","Word vs Fin FW","padoti.wav","padoro.wav",NA,4,0.820638616656125,"Unfamiliar",1,28,2009,1,"Final","Word vs FW",-0.580955455132344
"29",12181,"Base_NNL_801","NNL",1,17,"right","female","1","43","PW vs Med FW","robida.wav","bipiku.wav",1,2,0.756281907372257,"Unfamiliar",1,29,1314,1,"Medial","PW vs FW",0.419044544867656
"30",12182,"Base_NNL_801","NNL",1,17,"right","female","1","17","Word vs Med FW","golabu.wav","godabu.wav",NA,1,-1.31107860864913,"Unfamiliar",1,30,1492,1,"Medial","Word vs FW",1.41904454486766
"31",12183,"Base_NNL_801","NNL",1,17,"right","female","1","11","Word vs In FW","tupiro.wav","papiro.wav",NA,3,0.429540957672635,"Unfamiliar",1,31,2373,1,"Initial","Word vs FW",2.41904454486766
"32",12184,"Base_NNL_801","NNL",1,17,"right","female","5","14","Word vs In FW","godaku.wav","bidaku.wav",NA,2,-1.23434873110733,"Unfamiliar",1,32,2077,0,"Initial","Word vs FW",3.41904454486766
"33",12185,"Base_NNL_801","NNL",1,17,"right","female","1","52","PW vs Fin FW","butupi.wav","tupiku.wav",1,3,1.3494944975745,"Unfamiliar",1,33,1745,1,"Final","PW vs FW",4.41904454486766
"34",12186,"Base_NNL_801","NNL",1,17,"right","female","1","36","PW vs In FW","rogola.wav","bilabu.wav",1,1,-1.23434873110733,"Unfamiliar",5,34,1139,0,"Initial","PW vs FW",5.41904454486766
"35",12187,"Base_NNL_801","NNL",1,17,"right","female","1","19","Word vs Med FW","tupiro.wav","tudoro.wav",NA,3,-0.996502409603964,"Unfamiliar",5,35,1657,0,"Medial","Word vs FW",6.41904454486766
"36",12188,"Base_NNL_801","NNL",1,17,"right","female","1","1","Word vs PW","golabu.wav","rogola.wav",1,1,NA,"Unfamiliar",5,36,1434,0,NA,"Word vs PW",7.41904454486766
"37",12189,"Base_NNL_801","NNL",1,17,"right","female","5","53","PW vs Fin FW","golati.wav","labupa.wav",2,1,1.07824849447084,"Unfamiliar",1,37,1985,0,"Final","PW vs FW",8.41904454486766
"38",12190,"Base_NNL_801","NNL",1,17,"right","female","1","55","PW vs Fin FW","dakutu.wav","bidaro.wav",2,2,1.3494944975745,"Unfamiliar",5,38,1359,0,"Final","PW vs FW",9.41904454486766
"39",12191,"Base_NNL_801","NNL",1,17,"right","female","1","10","Word vs In FW","bidaku.wav","tudaku.wav",NA,2,-0.625245435400968,"Unfamiliar",5,39,2879,0,"Initial","Word vs FW",10.4190445448677
"40",12192,"Base_NNL_801","NNL",1,17,"right","female","5","8","Word vs PW","piropa.wav","tupiro.wav",2,3,NA,"Unfamiliar",5,40,1178,1,NA,"Word vs PW",11.4190445448677
"41",12193,"Base_NNL_801","NNL",1,17,"right","female","5","38","PW vs In FW","gopiro.wav","piropa.wav",2,3,-0.539772457704594,"Unfamiliar",1,41,1816,0,"Initial","PW vs FW",12.4190445448677
"42",12194,"Base_NNL_801","NNL",1,17,"right","female","5","22","Word vs Med FW","bilaku.wav","bidaku.wav",NA,2,-1.31107860864913,"Unfamiliar",1,42,1411,0,"Medial","Word vs FW",13.4190445448677
"43",12195,"Base_NNL_801","NNL",1,17,"right","female","5","4","Word vs PW","kupado.wav","padoti.wav",1,4,NA,"Unfamiliar",1,43,1569,0,NA,"Word vs PW",14.4190445448677
"44",12196,"Base_NNL_801","NNL",1,17,"right","female","1","18","Word vs Med FW","bidaku.wav","bipiku.wav",NA,2,0.756281907372257,"Unfamiliar",1,44,1868,1,"Medial","Word vs FW",15.4190445448677
"45",12197,"Base_NNL_801","NNL",1,17,"right","female","5","34","PW vs In FW","titupi.wav","papiro.wav",1,3,0.429540957672635,"Unfamiliar",5,45,2214,1,"Initial","PW vs FW",16.4190445448677
"46",12198,"Base_NNL_801","NNL",1,17,"right","female","5","42","PW vs Med FW","tudoro.wav","butupi.wav",1,3,-0.996502409603964,"Unfamiliar",1,46,1389,0,"Medial","PW vs FW",17.4190445448677
"47",12199,"Base_NNL_801","NNL",1,17,"right","female","1","26","Word vs Fin FW","bidaku.wav","bidabu.wav",NA,2,-1.22985896637136,"Unfamiliar",5,47,1511,0,"Final","Word vs FW",18.4190445448677
"48",12200,"Base_NNL_801","NNL",1,17,"right","female","5","50","PW vs Fin FW","padoro.wav","ropado.wav",1,4,0.820638616656125,"Unfamiliar",1,48,1590,0,"Final","PW vs FW",19.4190445448677
"49",12201,"Base_NNL_801","NNL",1,17,"right","female","5","32","Word vs Fin FW","padobu.wav","padoti.wav",NA,4,1.07824849447084,"Unfamiliar",5,49,1541,1,"Final","Word vs FW",20.4190445448677
"50",12202,"Base_NNL_801","NNL",1,17,"right","female","1","48","PW vs Med FW","pirogo.wav","tularo.wav",2,3,0.681696431891337,"Unfamiliar",5,50,1217,0,"Medial","PW vs FW",21.4190445448677
"51",12203,"Base_NNL_801","NNL",1,17,"right","female","1","2","Word vs PW","tupiro.wav","titupi.wav",1,3,NA,"Unfamiliar",1,51,1244,1,NA,"Word vs PW",22.4190445448677
"52",12204,"Base_NNL_801","NNL",1,17,"right","female","1","40","PW vs In FW","dotitu.wav","godoti.wav",2,4,0.266764696187699,"Unfamiliar",5,52,1563,0,"Initial","PW vs FW",23.4190445448677
"53",12205,"Base_NNL_801","NNL",1,17,"right","female","5","23","Word vs Med FW","tularo.wav","tupiro.wav",NA,3,0.681696431891337,"Unfamiliar",1,53,2205,0,"Medial","Word vs FW",24.4190445448677
"54",12206,"Base_NNL_801","NNL",1,17,"right","female","1","12","Word vs In FW","padoti.wav","tudoti.wav",NA,4,0.429540957672635,"Unfamiliar",1,54,1045,1,"Initial","Word vs FW",25.4190445448677
"55",12207,"Base_NNL_801","NNL",1,17,"right","female","5","45","PW vs Med FW","bilaku.wav","dakutu.wav",2,2,-1.31107860864913,"Unfamiliar",1,55,1201,0,"Medial","PW vs FW",26.4190445448677
"56",12208,"Base_NNL_801","NNL",1,17,"right","female","5","30","Word vs Fin FW","bidaro.wav","bidaku.wav",NA,2,1.3494944975745,"Unfamiliar",1,56,1148,0,"Final","Word vs FW",27.4190445448677
"57",12209,"Base_NNL_802","NNL",2,30,"right","male","1","28","Word vs Fin FW","padoti.wav","padoro.wav",NA,4,0.820638616656125,"Unfamiliar",1,1,4215,1,"Final","Word vs FW",-27.5809554551323
"58",12210,"Base_NNL_802","NNL",2,30,"right","male","5","7","Word vs PW","labubi.wav","golabu.wav",2,1,NA,"Unfamiliar",1,2,2535,0,NA,"Word vs PW",-26.5809554551323
"59",12211,"Base_NNL_802","NNL",2,30,"right","male","5","15","Word vs In FW","gopiro.wav","tupiro.wav",NA,3,-0.539772457704594,"Unfamiliar",1,3,2482,0,"Initial","Word vs FW",-25.5809554551323
"60",12212,"Base_NNL_802","NNL",2,30,"right","male","5","23","Word vs Med FW","tularo.wav","tupiro.wav",NA,3,0.681696431891337,"Unfamiliar",5,4,2342,1,"Medial","Word vs FW",-24.5809554551323
"61",12213,"Base_NNL_802","NNL",2,30,"right","male","5","53","PW vs Fin FW","golati.wav","labupa.wav",2,1,1.07824849447084,"Unfamiliar",5,5,1861,1,"Final","PW vs FW",-23.5809554551323
"62",12214,"Base_NNL_802","NNL",2,30,"right","male","5","32","Word vs Fin FW","padobu.wav","padoti.wav",NA,4,1.07824849447084,"Unfamiliar",5,6,1786,1,"Final","Word vs FW",-22.5809554551323
"63",12215,"Base_NNL_802","NNL",2,30,"right","male","1","48","PW vs Med FW","pirogo.wav","tularo.wav",2,3,0.681696431891337,"Unfamiliar",1,7,2064,1,"Medial","PW vs FW",-21.5809554551323
"64",12216,"Base_NNL_802","NNL",2,30,"right","male","1","20","Word vs Med FW","padoti.wav","padati.wav",NA,4,1.5060831821829,"Unfamiliar",1,8,2016,1,"Medial","Word vs FW",-20.5809554551323
"65",12217,"Base_NNL_802","NNL",2,30,"right","male","5","13","Word vs In FW","tulabu.wav","golabu.wav",NA,1,-0.539772457704594,"Unfamiliar",1,9,1895,0,"Initial","Word vs FW",-19.5809554551323
"66",12218,"Base_NNL_802","NNL",2,30,"right","male","5","3","Word vs PW","bubida.wav","bidaku.wav",1,2,NA,"Unfamiliar",1,10,1974,0,NA,"Word vs PW",-18.5809554551323
"67",12219,"Base_NNL_802","NNL",2,30,"right","male","5","37","PW vs In FW","tulabu.wav","labubi.wav",2,1,-0.539772457704594,"Unfamiliar",1,11,1547,0,"Initial","PW vs FW",-17.5809554551323
"68",12220,"Base_NNL_802","NNL",2,30,"right","male","1","52","PW vs Fin FW","butupi.wav","tupiku.wav",1,3,1.3494944975745,"Unfamiliar",5,12,1804,0,"Final","PW vs FW",-16.5809554551323
"69",12221,"Base_NNL_802","NNL",2,30,"right","male","1","12","Word vs In FW","padoti.wav","tudoti.wav",NA,4,0.429540957672635,"Unfamiliar",1,13,1451,1,"Initial","Word vs FW",-15.5809554551323
"70",12222,"Base_NNL_802","NNL",2,30,"right","male","1","36","PW vs In FW","rogola.wav","bilabu.wav",1,1,-1.23434873110733,"Unfamiliar",1,14,2086,1,"Initial","PW vs FW",-14.5809554551323
"71",12223,"Base_NNL_802","NNL",2,30,"right","male","5","14","Word vs In FW","godaku.wav","bidaku.wav",NA,2,-1.23434873110733,"Unfamiliar",5,15,2212,1,"Initial","Word vs FW",-13.5809554551323
"72",12224,"Base_NNL_802","NNL",2,30,"right","male","5","45","PW vs Med FW","bilaku.wav","dakutu.wav",2,2,-1.31107860864913,"Unfamiliar",1,16,1549,0,"Medial","PW vs FW",-12.5809554551323
"73",12225,"Base_NNL_802","NNL",2,30,"right","male","5","49","PW vs Fin FW","bidabu.wav","robida.wav",1,2,-1.22985896637136,"Unfamiliar",1,17,2171,0,"Final","PW vs FW",-11.5809554551323
"74",12226,"Base_NNL_802","NNL",2,30,"right","male","5","29","Word vs Fin FW","golati.wav","golabu.wav",NA,1,1.07824849447084,"Unfamiliar",1,18,1694,0,"Final","Word vs FW",-10.5809554551323
"75",12227,"Base_NNL_802","NNL",2,30,"right","male","5","35","PW vs In FW","tudoti.wav","kupado.wav",1,4,0.429540957672635,"Unfamiliar",1,19,1684,0,"Initial","PW vs FW",-9.58095545513234
"76",12228,"Base_NNL_802","NNL",2,30,"right","male","5","33","PW vs In FW","tudaku.wav","bubida.wav",1,2,-0.625245435400968,"Unfamiliar",1,20,1613,0,"Initial","PW vs FW",-8.58095545513234
"77",12229,"Base_NNL_802","NNL",2,30,"right","male","1","47","PW vs Med FW","labupa.wav","gopibu.wav",2,1,0.681696431891337,"Unfamiliar",5,21,3023,0,"Medial","PW vs FW",-7.58095545513234
"78",12230,"Base_NNL_802","NNL",2,30,"right","male","5","8","Word vs PW","piropa.wav","tupiro.wav",2,3,NA,"Unfamiliar",1,22,2851,0,NA,"Word vs PW",-6.58095545513234
"79",12231,"Base_NNL_802","NNL",2,30,"right","male","5","4","Word vs PW","kupado.wav","padoti.wav",1,4,NA,"Unfamiliar",5,23,1885,1,NA,"Word vs PW",-5.58095545513234
"80",12232,"Base_NNL_802","NNL",2,30,"right","male","5","42","PW vs Med FW","tudoro.wav","butupi.wav",1,3,-0.996502409603964,"Unfamiliar",1,24,2114,0,"Medial","PW vs FW",-4.58095545513234
"81",12233,"Base_NNL_802","NNL",2,30,"right","male","1","44","PW vs Med FW","ropado.wav","padati.wav",1,4,1.5060831821829,"Unfamiliar",5,25,1512,0,"Medial","PW vs FW",-3.58095545513234
"82",12234,"Base_NNL_802","NNL",2,30,"right","male","5","24","Word vs Med FW","papiti.wav","padoti.wav",NA,4,-0.996502409603964,"Unfamiliar",1,26,1679,0,"Medial","Word vs FW",-2.58095545513234
"83",12235,"Base_NNL_802","NNL",2,30,"right","male","1","19","Word vs Med FW","tupiro.wav","tudoro.wav",NA,3,-0.996502409603964,"Unfamiliar",5,27,1634,0,"Medial","Word vs FW",-1.58095545513234
"84",12236,"Base_NNL_802","NNL",2,30,"right","male","1","11","Word vs In FW","tupiro.wav","papiro.wav",NA,3,0.429540957672635,"Unfamiliar",5,28,2472,0,"Initial","Word vs FW",-0.580955455132344
"85",12237,"Base_NNL_802","NNL",2,30,"right","male","1","26","Word vs Fin FW","bidaku.wav","bidabu.wav",NA,2,-1.22985896637136,"Unfamiliar",1,29,2007,1,"Final","Word vs FW",0.419044544867656
"86",12238,"Base_NNL_802","NNL",2,30,"right","male","5","16","Word vs In FW","godoti.wav","padoti.wav",NA,4,0.266764696187699,"Unfamiliar",5,30,2135,1,"Initial","Word vs FW",1.41904454486766
"87",12239,"Base_NNL_802","NNL",2,30,"right","male","5","22","Word vs Med FW","bilaku.wav","bidaku.wav",NA,2,-1.31107860864913,"Unfamiliar",5,31,2218,1,"Medial","Word vs FW",2.41904454486766
"88",12240,"Base_NNL_802","NNL",2,30,"right","male","1","17","Word vs Med FW","golabu.wav","godabu.wav",NA,1,-1.31107860864913,"Unfamiliar",1,32,3039,1,"Medial","Word vs FW",3.41904454486766
"89",12241,"Base_NNL_802","NNL",2,30,"right","male","1","10","Word vs In FW","bidaku.wav","tudaku.wav",NA,2,-0.625245435400968,"Unfamiliar",1,33,1950,1,"Initial","Word vs FW",4.41904454486766
"90",12242,"Base_NNL_802","NNL",2,30,"right","male","5","41","PW vs Med FW","godabu.wav","kugola.wav",1,1,-1.31107860864913,"Unfamiliar",5,34,2125,1,"Medial","PW vs FW",5.41904454486766
"91",12243,"Base_NNL_802","NNL",2,30,"right","male","1","43","PW vs Med FW","robida.wav","bipiku.wav",1,2,0.756281907372257,"Unfamiliar",5,35,1523,0,"Medial","PW vs FW",6.41904454486766
"92",12244,"Base_NNL_802","NNL",2,30,"right","male","5","21","Word vs Med FW","gopibu.wav","golabu.wav",NA,1,0.681696431891337,"Unfamiliar",1,36,1728,0,"Medial","Word vs FW",7.41904454486766
"93",12245,"Base_NNL_802","NNL",2,30,"right","male","1","5","Word vs PW","bidaku.wav","dakugo.wav",2,2,NA,"Unfamiliar",5,37,2205,0,NA,"Word vs PW",8.41904454486766
"94",12246,"Base_NNL_802","NNL",2,30,"right","male","1","1","Word vs PW","golabu.wav","rogola.wav",1,1,NA,"Unfamiliar",1,38,1980,1,NA,"Word vs PW",9.41904454486766
"95",12247,"Base_NNL_802","NNL",2,30,"right","male","1","9","Word vs In FW","golabu.wav","bilabu.wav",NA,1,-1.23434873110733,"Unfamiliar",1,39,2485,1,"Initial","Word vs FW",10.4190445448677
"96",12248,"Base_NNL_802","NNL",2,30,"right","male","1","25","Word vs Fin FW","golabu.wav","golaku.wav",NA,1,-1.22985896637136,"Unfamiliar",5,40,1522,0,"Final","Word vs FW",11.4190445448677
"97",12249,"Base_NNL_802","NNL",2,30,"right","male","1","2","Word vs PW","tupiro.wav","titupi.wav",1,3,NA,"Unfamiliar",1,41,2059,1,NA,"Word vs PW",12.4190445448677
"98",12250,"Base_NNL_802","NNL",2,30,"right","male","1","39","PW vs In FW","dakugo.wav","godaku.wav",2,2,-1.23434873110733,"Unfamiliar",1,42,1386,1,"Initial","PW vs FW",13.4190445448677
"99",12251,"Base_NNL_802","NNL",2,30,"right","male","5","34","PW vs In FW","titupi.wav","papiro.wav",1,3,0.429540957672635,"Unfamiliar",1,43,1590,0,"Initial","PW vs FW",14.4190445448677
"100",12252,"Base_NNL_802","NNL",2,30,"right","male","1","51","PW vs Fin FW","kugola.wav","golaku.wav",1,1,-1.22985896637136,"Unfamiliar",1,44,1198,1,"Final","PW vs FW",15.4190445448677
"101",12253,"Base_NNL_802","NNL",2,30,"right","male","5","38","PW vs In FW","gopiro.wav","piropa.wav",2,3,-0.539772457704594,"Unfamiliar",1,45,1295,0,"Initial","PW vs FW",16.4190445448677
"102",12254,"Base_NNL_802","NNL",2,30,"right","male","1","6","Word vs PW","padoti.wav","dotitu.wav",2,4,NA,"Unfamiliar",1,46,1457,1,NA,"Word vs PW",17.4190445448677
"103",12255,"Base_NNL_802","NNL",2,30,"right","male","5","31","Word vs Fin FW","tupiti.wav","tupiro.wav",NA,3,0.820638616656125,"Unfamiliar",1,47,1528,0,"Final","Word vs FW",18.4190445448677
"104",12256,"Base_NNL_802","NNL",2,30,"right","male","1","27","Word vs Fin FW","tupiro.wav","tupiku.wav",NA,3,1.3494944975745,"Unfamiliar",5,48,2777,0,"Final","Word vs FW",19.4190445448677
"105",12257,"Base_NNL_802","NNL",2,30,"right","male","1","56","PW vs Fin FW","dotigo.wav","padobu.wav",2,4,1.07824849447084,"Unfamiliar",1,49,1643,1,"Final","PW vs FW",20.4190445448677
"106",12258,"Base_NNL_802","NNL",2,30,"right","male","1","18","Word vs Med FW","bidaku.wav","bipiku.wav",NA,2,0.756281907372257,"Unfamiliar",5,50,1513,0,"Medial","Word vs FW",21.4190445448677
"107",12259,"Base_NNL_802","NNL",2,30,"right","male","5","50","PW vs Fin FW","padoro.wav","ropado.wav",1,4,0.820638616656125,"Unfamiliar",1,51,2373,0,"Final","PW vs FW",22.4190445448677
"108",12260,"Base_NNL_802","NNL",2,30,"right","male","5","30","Word vs Fin FW","bidaro.wav","bidaku.wav",NA,2,1.3494944975745,"Unfamiliar",1,52,1352,0,"Final","Word vs FW",23.4190445448677
"109",12261,"Base_NNL_802","NNL",2,30,"right","male","1","55","PW vs Fin FW","dakutu.wav","bidaro.wav",2,2,1.3494944975745,"Unfamiliar",1,53,2208,1,"Final","PW vs FW",24.4190445448677
"110",12262,"Base_NNL_802","NNL",2,30,"right","male","1","40","PW vs In FW","dotitu.wav","godoti.wav",2,4,0.266764696187699,"Unfamiliar",1,54,1489,1,"Initial","PW vs FW",25.4190445448677
"111",12263,"Base_NNL_802","NNL",2,30,"right","male","5","46","PW vs Med FW","papiti.wav","dotigo.wav",2,4,-0.996502409603964,"Unfamiliar",1,55,1286,0,"Medial","PW vs FW",26.4190445448677
"112",12264,"Base_NNL_802","NNL",2,30,"right","male","5","54","PW vs Fin FW","tupiti.wav","pirogo.wav",2,3,0.820638616656125,"Unfamiliar",1,56,1538,0,"Final","PW vs FW",27.4190445448677
"113",12265,"Base_NNL_803","NNL",1,22,"right","female","1","11","Word vs In FW","tupiro.wav","papiro.wav",NA,3,0.429540957672635,"Unfamiliar",1,1,2784,1,"Initial","Word vs FW",-27.5809554551323
"114",12266,"Base_NNL_803","NNL",1,22,"right","female","5","31","Word vs Fin FW","tupiti.wav","tupiro.wav",NA,3,0.820638616656125,"Unfamiliar",1,2,1232,0,"Final","Word vs FW",-26.5809554551323
"115",12267,"Base_NNL_803","NNL",1,22,"right","female","5","15","Word vs In FW","gopiro.wav","tupiro.wav",NA,3,-0.539772457704594,"Unfamiliar",1,3,2084,0,"Initial","Word vs FW",-25.5809554551323
"116",12268,"Base_NNL_803","NNL",1,22,"right","female","1","1","Word vs PW","golabu.wav","rogola.wav",1,1,NA,"Unfamiliar",1,4,1494,1,NA,"Word vs PW",-24.5809554551323
"117",12269,"Base_NNL_803","NNL",1,22,"right","female","5","34","PW vs In FW","titupi.wav","papiro.wav",1,3,0.429540957672635,"Unfamiliar",1,5,977,0,"Initial","PW vs FW",-23.5809554551323
"118",12270,"Base_NNL_803","NNL",1,22,"right","female","1","28","Word vs Fin FW","padoti.wav","padoro.wav",NA,4,0.820638616656125,"Unfamiliar",1,6,1232,1,"Final","Word vs FW",-22.5809554551323
"119",12271,"Base_NNL_803","NNL",1,22,"right","female","5","46","PW vs Med FW","papiti.wav","dotigo.wav",2,4,-0.996502409603964,"Unfamiliar",5,7,1039,1,"Medial","PW vs FW",-21.5809554551323
"120",12272,"Base_NNL_803","NNL",1,22,"right","female","5","41","PW vs Med FW","godabu.wav","kugola.wav",1,1,-1.31107860864913,"Unfamiliar",1,8,1291,0,"Medial","PW vs FW",-20.5809554551323
"121",12273,"Base_NNL_803","NNL",1,22,"right","female","5","30","Word vs Fin FW","bidaro.wav","bidaku.wav",NA,2,1.3494944975745,"Unfamiliar",5,9,1742,1,"Final","Word vs FW",-19.5809554551323
"122",12274,"Base_NNL_803","NNL",1,22,"right","female","1","20","Word vs Med FW","padoti.wav","padati.wav",NA,4,1.5060831821829,"Unfamiliar",1,10,3001,1,"Medial","Word vs FW",-18.5809554551323
"123",12275,"Base_NNL_803","NNL",1,22,"right","female","5","13","Word vs In FW","tulabu.wav","golabu.wav",NA,1,-0.539772457704594,"Unfamiliar",5,11,1480,1,"Initial","Word vs FW",-17.5809554551323
"124",12276,"Base_NNL_803","NNL",1,22,"right","female","5","8","Word vs PW","piropa.wav","tupiro.wav",2,3,NA,"Unfamiliar",1,12,1896,0,NA,"Word vs PW",-16.5809554551323
"125",12277,"Base_NNL_803","NNL",1,22,"right","female","1","43","PW vs Med FW","robida.wav","bipiku.wav",1,2,0.756281907372257,"Unfamiliar",1,13,1650,1,"Medial","PW vs FW",-15.5809554551323
"126",12278,"Base_NNL_803","NNL",1,22,"right","female","1","56","PW vs Fin FW","dotigo.wav","padobu.wav",2,4,1.07824849447084,"Unfamiliar",5,14,1075,0,"Final","PW vs FW",-14.5809554551323
"127",12279,"Base_NNL_803","NNL",1,22,"right","female","1","48","PW vs Med FW","pirogo.wav","tularo.wav",2,3,0.681696431891337,"Unfamiliar",5,15,979,0,"Medial","PW vs FW",-13.5809554551323
"128",12280,"Base_NNL_803","NNL",1,22,"right","female","5","22","Word vs Med FW","bilaku.wav","bidaku.wav",NA,2,-1.31107860864913,"Unfamiliar",1,16,2202,0,"Medial","Word vs FW",-12.5809554551323
"129",12281,"Base_NNL_803","NNL",1,22,"right","female","5","7","Word vs PW","labubi.wav","golabu.wav",2,1,NA,"Unfamiliar",5,17,982,1,NA,"Word vs PW",-11.5809554551323
"130",12282,"Base_NNL_803","NNL",1,22,"right","female","5","53","PW vs Fin FW","golati.wav","labupa.wav",2,1,1.07824849447084,"Unfamiliar",1,18,1685,0,"Final","PW vs FW",-10.5809554551323
"131",12283,"Base_NNL_803","NNL",1,22,"right","female","1","40","PW vs In FW","dotitu.wav","godoti.wav",2,4,0.266764696187699,"Unfamiliar",1,19,995,1,"Initial","PW vs FW",-9.58095545513234
"132",12284,"Base_NNL_803","NNL",1,22,"right","female","1","26","Word vs Fin FW","bidaku.wav","bidabu.wav",NA,2,-1.22985896637136,"Unfamiliar",5,20,1223,0,"Final","Word vs FW",-8.58095545513234
"133",12285,"Base_NNL_803","NNL",1,22,"right","female","1","52","PW vs Fin FW","butupi.wav","tupiku.wav",1,3,1.3494944975745,"Unfamiliar",1,21,3575,1,"Final","PW vs FW",-7.58095545513234
"134",12286,"Base_NNL_803","NNL",1,22,"right","female","1","27","Word vs Fin FW","tupiro.wav","tupiku.wav",NA,3,1.3494944975745,"Unfamiliar",1,22,2477,1,"Final","Word vs FW",-6.58095545513234
"135",12287,"Base_NNL_803","NNL",1,22,"right","female","5","33","PW vs In FW","tudaku.wav","bubida.wav",1,2,-0.625245435400968,"Unfamiliar",1,23,2198,0,"Initial","PW vs FW",-5.58095545513234
"136",12288,"Base_NNL_803","NNL",1,22,"right","female","5","50","PW vs Fin FW","padoro.wav","ropado.wav",1,4,0.820638616656125,"Unfamiliar",1,24,1967,0,"Final","PW vs FW",-4.58095545513234
"137",12289,"Base_NNL_803","NNL",1,22,"right","female","5","4","Word vs PW","kupado.wav","padoti.wav",1,4,NA,"Unfamiliar",1,25,1823,0,NA,"Word vs PW",-3.58095545513234
"138",12290,"Base_NNL_803","NNL",1,22,"right","female","1","5","Word vs PW","bidaku.wav","dakugo.wav",2,2,NA,"Unfamiliar",5,26,2017,0,NA,"Word vs PW",-2.58095545513234
"139",12291,"Base_NNL_803","NNL",1,22,"right","female","5","38","PW vs In FW","gopiro.wav","piropa.wav",2,3,-0.539772457704594,"Unfamiliar",5,27,1442,1,"Initial","PW vs FW",-1.58095545513234
"140",12292,"Base_NNL_803","NNL",1,22,"right","female","1","44","PW vs Med FW","ropado.wav","padati.wav",1,4,1.5060831821829,"Unfamiliar",5,28,1691,0,"Medial","PW vs FW",-0.580955455132344
"141",12293,"Base_NNL_803","NNL",1,22,"right","female","5","45","PW vs Med FW","bilaku.wav","dakutu.wav",2,2,-1.31107860864913,"Unfamiliar",5,29,1558,1,"Medial","PW vs FW",0.419044544867656
"142",12294,"Base_NNL_803","NNL",1,22,"right","female","1","10","Word vs In FW","bidaku.wav","tudaku.wav",NA,2,-0.625245435400968,"Unfamiliar",1,30,1832,1,"Initial","Word vs FW",1.41904454486766
"143",12295,"Base_NNL_803","NNL",1,22,"right","female","5","35","PW vs In FW","tudoti.wav","kupado.wav",1,4,0.429540957672635,"Unfamiliar",1,31,2105,0,"Initial","PW vs FW",2.41904454486766
"144",12296,"Base_NNL_803","NNL",1,22,"right","female","1","9","Word vs In FW","golabu.wav","bilabu.wav",NA,1,-1.23434873110733,"Unfamiliar",1,32,1292,1,"Initial","Word vs FW",3.41904454486766
"145",12297,"Base_NNL_803","NNL",1,22,"right","female","1","2","Word vs PW","tupiro.wav","titupi.wav",1,3,NA,"Unfamiliar",5,33,1487,0,NA,"Word vs PW",4.41904454486766
"146",12298,"Base_NNL_803","NNL",1,22,"right","female","5","37","PW vs In FW","tulabu.wav","labubi.wav",2,1,-0.539772457704594,"Unfamiliar",1,34,1037,0,"Initial","PW vs FW",5.41904454486766
"147",12299,"Base_NNL_803","NNL",1,22,"right","female","1","12","Word vs In FW","padoti.wav","tudoti.wav",NA,4,0.429540957672635,"Unfamiliar",1,35,1128,1,"Initial","Word vs FW",6.41904454486766
"148",12300,"Base_NNL_803","NNL",1,22,"right","female","5","16","Word vs In FW","godoti.wav","padoti.wav",NA,4,0.266764696187699,"Unfamiliar",1,36,1570,0,"Initial","Word vs FW",7.41904454486766
"149",12301,"Base_NNL_803","NNL",1,22,"right","female","5","14","Word vs In FW","godaku.wav","bidaku.wav",NA,2,-1.23434873110733,"Unfamiliar",1,37,2049,0,"Initial","Word vs FW",8.41904454486766
"150",12302,"Base_NNL_803","NNL",1,22,"right","female","5","21","Word vs Med FW","gopibu.wav","golabu.wav",NA,1,0.681696431891337,"Unfamiliar",5,38,1301,1,"Medial","Word vs FW",9.41904454486766
"151",12303,"Base_NNL_803","NNL",1,22,"right","female","1","6","Word vs PW","padoti.wav","dotitu.wav",2,4,NA,"Unfamiliar",5,39,1652,0,NA,"Word vs PW",10.4190445448677
"152",12304,"Base_NNL_803","NNL",1,22,"right","female","1","18","Word vs Med FW","bidaku.wav","bipiku.wav",NA,2,0.756281907372257,"Unfamiliar",5,40,1225,0,"Medial","Word vs FW",11.4190445448677
"153",12305,"Base_NNL_803","NNL",1,22,"right","female","1","47","PW vs Med FW","labupa.wav","gopibu.wav",2,1,0.681696431891337,"Unfamiliar",5,41,1378,0,"Medial","PW vs FW",12.4190445448677
"154",12306,"Base_NNL_803","NNL",1,22,"right","female","5","54","PW vs Fin FW","tupiti.wav","pirogo.wav",2,3,0.820638616656125,"Unfamiliar",5,42,1090,1,"Final","PW vs FW",13.4190445448677
"155",12307,"Base_NNL_803","NNL",1,22,"right","female","1","51","PW vs Fin FW","kugola.wav","golaku.wav",1,1,-1.22985896637136,"Unfamiliar",5,43,1198,0,"Final","PW vs FW",14.4190445448677
"156",12308,"Base_NNL_803","NNL",1,22,"right","female","1","36","PW vs In FW","rogola.wav","bilabu.wav",1,1,-1.23434873110733,"Unfamiliar",5,44,1159,0,"Initial","PW vs FW",15.4190445448677
"157",12309,"Base_NNL_803","NNL",1,22,"right","female","5","29","Word vs Fin FW","golati.wav","golabu.wav",NA,1,1.07824849447084,"Unfamiliar",1,45,1092,0,"Final","Word vs FW",16.4190445448677
"158",12310,"Base_NNL_803","NNL",1,22,"right","female","1","19","Word vs Med FW","tupiro.wav","tudoro.wav",NA,3,-0.996502409603964,"Unfamiliar",1,46,1933,1,"Medial","Word vs FW",17.4190445448677
"159",12311,"Base_NNL_803","NNL",1,22,"right","female","5","3","Word vs PW","bubida.wav","bidaku.wav",1,2,NA,"Unfamiliar",5,47,1131,1,NA,"Word vs PW",18.4190445448677
"160",12312,"Base_NNL_803","NNL",1,22,"right","female","5","49","PW vs Fin FW","bidabu.wav","robida.wav",1,2,-1.22985896637136,"Unfamiliar",5,48,3181,1,"Final","PW vs FW",19.4190445448677
"161",12313,"Base_NNL_803","NNL",1,22,"right","female","1","25","Word vs Fin FW","golabu.wav","golaku.wav",NA,1,-1.22985896637136,"Unfamiliar",5,49,1553,0,"Final","Word vs FW",20.4190445448677
"162",12314,"Base_NNL_803","NNL",1,22,"right","female","1","17","Word vs Med FW","golabu.wav","godabu.wav",NA,1,-1.31107860864913,"Unfamiliar",5,50,1186,0,"Medial","Word vs FW",21.4190445448677
"163",12315,"Base_NNL_803","NNL",1,22,"right","female","5","24","Word vs Med FW","papiti.wav","padoti.wav",NA,4,-0.996502409603964,"Unfamiliar",5,51,1129,1,"Medial","Word vs FW",22.4190445448677
"164",12316,"Base_NNL_803","NNL",1,22,"right","female","1","55","PW vs Fin FW","dakutu.wav","bidaro.wav",2,2,1.3494944975745,"Unfamiliar",5,52,933,0,"Final","PW vs FW",23.4190445448677
"165",12317,"Base_NNL_803","NNL",1,22,"right","female","5","32","Word vs Fin FW","padobu.wav","padoti.wav",NA,4,1.07824849447084,"Unfamiliar",1,53,1196,0,"Final","Word vs FW",24.4190445448677
"166",12318,"Base_NNL_803","NNL",1,22,"right","female","5","23","Word vs Med FW","tularo.wav","tupiro.wav",NA,3,0.681696431891337,"Unfamiliar",5,54,1012,1,"Medial","Word vs FW",25.4190445448677
"167",12319,"Base_NNL_803","NNL",1,22,"right","female","5","42","PW vs Med FW","tudoro.wav","butupi.wav",1,3,-0.996502409603964,"Unfamiliar",1,55,1007,0,"Medial","PW vs FW",26.4190445448677
"168",12320,"Base_NNL_803","NNL",1,22,"right","female","1","39","PW vs In FW","dakugo.wav","godaku.wav",2,2,-1.23434873110733,"Unfamiliar",5,56,1152,0,"Initial","PW vs FW",27.4190445448677
"169",12321,"Base_NNL_804","NNL",2,23,"right","female","5","4","Word vs PW","kupado.wav","padoti.wav",1,4,NA,"Unfamiliar",5,1,1743,1,NA,"Word vs PW",-27.5809554551323
"170",12322,"Base_NNL_804","NNL",2,23,"right","female","1","55","PW vs Fin FW","dakutu.wav","bidaro.wav",2,2,1.3494944975745,"Unfamiliar",1,2,1605,1,"Final","PW vs FW",-26.5809554551323
"171",12323,"Base_NNL_804","NNL",2,23,"right","female","1","36","PW vs In FW","rogola.wav","bilabu.wav",1,1,-1.23434873110733,"Unfamiliar",1,3,1375,1,"Initial","PW vs FW",-25.5809554551323
"172",12324,"Base_NNL_804","NNL",2,23,"right","female","1","26","Word vs Fin FW","bidaku.wav","bidabu.wav",NA,2,-1.22985896637136,"Unfamiliar",1,4,1760,1,"Final","Word vs FW",-24.5809554551323
"173",12325,"Base_NNL_804","NNL",2,23,"right","female","1","40","PW vs In FW","dotitu.wav","godoti.wav",2,4,0.266764696187699,"Unfamiliar",1,5,967,1,"Initial","PW vs FW",-23.5809554551323
"174",12326,"Base_NNL_804","NNL",2,23,"right","female","5","54","PW vs Fin FW","tupiti.wav","pirogo.wav",2,3,0.820638616656125,"Unfamiliar",5,6,1408,1,"Final","PW vs FW",-22.5809554551323
"175",12327,"Base_NNL_804","NNL",2,23,"right","female","1","28","Word vs Fin FW","padoti.wav","padoro.wav",NA,4,0.820638616656125,"Unfamiliar",1,7,1192,1,"Final","Word vs FW",-21.5809554551323
"176",12328,"Base_NNL_804","NNL",2,23,"right","female","5","38","PW vs In FW","gopiro.wav","piropa.wav",2,3,-0.539772457704594,"Unfamiliar",5,8,1182,1,"Initial","PW vs FW",-20.5809554551323
"177",12329,"Base_NNL_804","NNL",2,23,"right","female","5","16","Word vs In FW","godoti.wav","padoti.wav",NA,4,0.266764696187699,"Unfamiliar",5,9,1506,1,"Initial","Word vs FW",-19.5809554551323
"178",12330,"Base_NNL_804","NNL",2,23,"right","female","5","49","PW vs Fin FW","bidabu.wav","robida.wav",1,2,-1.22985896637136,"Unfamiliar",5,10,1045,1,"Final","PW vs FW",-18.5809554551323
"179",12331,"Base_NNL_804","NNL",2,23,"right","female","1","25","Word vs Fin FW","golabu.wav","golaku.wav",NA,1,-1.22985896637136,"Unfamiliar",1,11,1670,1,"Final","Word vs FW",-17.5809554551323
"180",12332,"Base_NNL_804","NNL",2,23,"right","female","1","10","Word vs In FW","bidaku.wav","tudaku.wav",NA,2,-0.625245435400968,"Unfamiliar",5,12,1209,0,"Initial","Word vs FW",-16.5809554551323
"181",12333,"Base_NNL_804","NNL",2,23,"right","female","1","52","PW vs Fin FW","butupi.wav","tupiku.wav",1,3,1.3494944975745,"Unfamiliar",5,13,1316,0,"Final","PW vs FW",-15.5809554551323
"182",12334,"Base_NNL_804","NNL",2,23,"right","female","1","20","Word vs Med FW","padoti.wav","padati.wav",NA,4,1.5060831821829,"Unfamiliar",1,14,1097,1,"Medial","Word vs FW",-14.5809554551323
"183",12335,"Base_NNL_804","NNL",2,23,"right","female","5","53","PW vs Fin FW","golati.wav","labupa.wav",2,1,1.07824849447084,"Unfamiliar",5,15,983,1,"Final","PW vs FW",-13.5809554551323
"184",12336,"Base_NNL_804","NNL",2,23,"right","female","1","18","Word vs Med FW","bidaku.wav","bipiku.wav",NA,2,0.756281907372257,"Unfamiliar",1,16,1233,1,"Medial","Word vs FW",-12.5809554551323
"185",12337,"Base_NNL_804","NNL",2,23,"right","female","5","32","Word vs Fin FW","padobu.wav","padoti.wav",NA,4,1.07824849447084,"Unfamiliar",5,17,938,1,"Final","Word vs FW",-11.5809554551323
"186",12338,"Base_NNL_804","NNL",2,23,"right","female","5","3","Word vs PW","bubida.wav","bidaku.wav",1,2,NA,"Unfamiliar",1,18,1099,0,NA,"Word vs PW",-10.5809554551323
"187",12339,"Base_NNL_804","NNL",2,23,"right","female","1","19","Word vs Med FW","tupiro.wav","tudoro.wav",NA,3,-0.996502409603964,"Unfamiliar",5,19,1221,0,"Medial","Word vs FW",-9.58095545513234
"188",12340,"Base_NNL_804","NNL",2,23,"right","female","1","11","Word vs In FW","tupiro.wav","papiro.wav",NA,3,0.429540957672635,"Unfamiliar",1,20,1731,1,"Initial","Word vs FW",-8.58095545513234
"189",12341,"Base_NNL_804","NNL",2,23,"right","female","5","24","Word vs Med FW","papiti.wav","padoti.wav",NA,4,-0.996502409603964,"Unfamiliar",5,21,1025,1,"Medial","Word vs FW",-7.58095545513234
"190",12342,"Base_NNL_804","NNL",2,23,"right","female","5","7","Word vs PW","labubi.wav","golabu.wav",2,1,NA,"Unfamiliar",1,22,1372,0,NA,"Word vs PW",-6.58095545513234
"191",12343,"Base_NNL_804","NNL",2,23,"right","female","5","14","Word vs In FW","godaku.wav","bidaku.wav",NA,2,-1.23434873110733,"Unfamiliar",5,23,1217,1,"Initial","Word vs FW",-5.58095545513234
"192",12344,"Base_NNL_804","NNL",2,23,"right","female","5","33","PW vs In FW","tudaku.wav","bubida.wav",1,2,-0.625245435400968,"Unfamiliar",5,24,1421,1,"Initial","PW vs FW",-4.58095545513234
"193",12345,"Base_NNL_804","NNL",2,23,"right","female","5","22","Word vs Med FW","bilaku.wav","bidaku.wav",NA,2,-1.31107860864913,"Unfamiliar",5,25,1334,1,"Medial","Word vs FW",-3.58095545513234
"194",12346,"Base_NNL_804","NNL",2,23,"right","female","5","35","PW vs In FW","tudoti.wav","kupado.wav",1,4,0.429540957672635,"Unfamiliar",1,26,1238,0,"Initial","PW vs FW",-2.58095545513234
"195",12347,"Base_NNL_804","NNL",2,23,"right","female","5","15","Word vs In FW","gopiro.wav","tupiro.wav",NA,3,-0.539772457704594,"Unfamiliar",1,27,1329,0,"Initial","Word vs FW",-1.58095545513234
"196",12348,"Base_NNL_804","NNL",2,23,"right","female","5","31","Word vs Fin FW","tupiti.wav","tupiro.wav",NA,3,0.820638616656125,"Unfamiliar",5,28,1780,1,"Final","Word vs FW",-0.580955455132344
"197",12349,"Base_NNL_804","NNL",2,23,"right","female","5","23","Word vs Med FW","tularo.wav","tupiro.wav",NA,3,0.681696431891337,"Unfamiliar",1,29,1737,0,"Medial","Word vs FW",0.419044544867656
"198",12350,"Base_NNL_804","NNL",2,23,"right","female","1","47","PW vs Med FW","labupa.wav","gopibu.wav",2,1,0.681696431891337,"Unfamiliar",5,30,2116,0,"Medial","PW vs FW",1.41904454486766
"199",12351,"Base_NNL_804","NNL",2,23,"right","female","1","56","PW vs Fin FW","dotigo.wav","padobu.wav",2,4,1.07824849447084,"Unfamiliar",1,31,1322,1,"Final","PW vs FW",2.41904454486766
"200",12352,"Base_NNL_804","NNL",2,23,"right","female","1","2","Word vs PW","tupiro.wav","titupi.wav",1,3,NA,"Unfamiliar",1,32,1068,1,NA,"Word vs PW",3.41904454486766
"201",12353,"Base_NNL_804","NNL",2,23,"right","female","1","44","PW vs Med FW","ropado.wav","padati.wav",1,4,1.5060831821829,"Unfamiliar",1,33,1253,1,"Medial","PW vs FW",4.41904454486766
"202",12354,"Base_NNL_804","NNL",2,23,"right","female","5","21","Word vs Med FW","gopibu.wav","golabu.wav",NA,1,0.681696431891337,"Unfamiliar",1,34,1205,0,"Medial","Word vs FW",5.41904454486766
"203",12355,"Base_NNL_804","NNL",2,23,"right","female","5","42","PW vs Med FW","tudoro.wav","butupi.wav",1,3,-0.996502409603964,"Unfamiliar",1,35,1158,0,"Medial","PW vs FW",6.41904454486766
"204",12356,"Base_NNL_804","NNL",2,23,"right","female","5","34","PW vs In FW","titupi.wav","papiro.wav",1,3,0.429540957672635,"Unfamiliar",1,36,1512,0,"Initial","PW vs FW",7.41904454486766
"205",12357,"Base_NNL_804","NNL",2,23,"right","female","5","13","Word vs In FW","tulabu.wav","golabu.wav",NA,1,-0.539772457704594,"Unfamiliar",1,37,1355,0,"Initial","Word vs FW",8.41904454486766
"206",12358,"Base_NNL_804","NNL",2,23,"right","female","1","5","Word vs PW","bidaku.wav","dakugo.wav",2,2,NA,"Unfamiliar",1,38,1035,1,NA,"Word vs PW",9.41904454486766
"207",12359,"Base_NNL_804","NNL",2,23,"right","female","5","45","PW vs Med FW","bilaku.wav","dakutu.wav",2,2,-1.31107860864913,"Unfamiliar",1,39,1322,0,"Medial","PW vs FW",10.4190445448677
"208",12360,"Base_NNL_804","NNL",2,23,"right","female","1","1","Word vs PW","golabu.wav","rogola.wav",1,1,NA,"Unfamiliar",1,40,1249,1,NA,"Word vs PW",11.4190445448677
"209",12361,"Base_NNL_804","NNL",2,23,"right","female","1","17","Word vs Med FW","golabu.wav","godabu.wav",NA,1,-1.31107860864913,"Unfamiliar",1,41,1590,1,"Medial","Word vs FW",12.4190445448677
"210",12362,"Base_NNL_804","NNL",2,23,"right","female","1","9","Word vs In FW","golabu.wav","bilabu.wav",NA,1,-1.23434873110733,"Unfamiliar",1,42,1187,1,"Initial","Word vs FW",13.4190445448677
"211",12363,"Base_NNL_804","NNL",2,23,"right","female","5","8","Word vs PW","piropa.wav","tupiro.wav",2,3,NA,"Unfamiliar",1,43,1860,0,NA,"Word vs PW",14.4190445448677
"212",12364,"Base_NNL_804","NNL",2,23,"right","female","1","43","PW vs Med FW","robida.wav","bipiku.wav",1,2,0.756281907372257,"Unfamiliar",1,44,1002,1,"Medial","PW vs FW",15.4190445448677
"213",12365,"Base_NNL_804","NNL",2,23,"right","female","5","37","PW vs In FW","tulabu.wav","labubi.wav",2,1,-0.539772457704594,"Unfamiliar",1,45,1268,0,"Initial","PW vs FW",16.4190445448677
"214",12366,"Base_NNL_804","NNL",2,23,"right","female","5","50","PW vs Fin FW","padoro.wav","ropado.wav",1,4,0.820638616656125,"Unfamiliar",5,46,1533,1,"Final","PW vs FW",17.4190445448677
"215",12367,"Base_NNL_804","NNL",2,23,"right","female","5","41","PW vs Med FW","godabu.wav","kugola.wav",1,1,-1.31107860864913,"Unfamiliar",1,47,1067,0,"Medial","PW vs FW",18.4190445448677
"216",12368,"Base_NNL_804","NNL",2,23,"right","female","1","12","Word vs In FW","padoti.wav","tudoti.wav",NA,4,0.429540957672635,"Unfamiliar",1,48,1734,1,"Initial","Word vs FW",19.4190445448677
"217",12369,"Base_NNL_804","NNL",2,23,"right","female","1","6","Word vs PW","padoti.wav","dotitu.wav",2,4,NA,"Unfamiliar",1,49,1436,1,NA,"Word vs PW",20.4190445448677
"218",12370,"Base_NNL_804","NNL",2,23,"right","female","5","30","Word vs Fin FW","bidaro.wav","bidaku.wav",NA,2,1.3494944975745,"Unfamiliar",5,50,1869,1,"Final","Word vs FW",21.4190445448677
"219",12371,"Base_NNL_804","NNL",2,23,"right","female","1","51","PW vs Fin FW","kugola.wav","golaku.wav",1,1,-1.22985896637136,"Unfamiliar",5,51,1240,0,"Final","PW vs FW",22.4190445448677
"220",12372,"Base_NNL_804","NNL",2,23,"right","female","5","29","Word vs Fin FW","golati.wav","golabu.wav",NA,1,1.07824849447084,"Unfamiliar",1,52,1947,0,"Final","Word vs FW",23.4190445448677
"221",12373,"Base_NNL_804","NNL",2,23,"right","female","1","27","Word vs Fin FW","tupiro.wav","tupiku.wav",NA,3,1.3494944975745,"Unfamiliar",5,53,2084,0,"Final","Word vs FW",24.4190445448677
"222",12374,"Base_NNL_804","NNL",2,23,"right","female","5","46","PW vs Med FW","papiti.wav","dotigo.wav",2,4,-0.996502409603964,"Unfamiliar",1,54,1082,0,"Medial","PW vs FW",25.4190445448677
"223",12375,"Base_NNL_804","NNL",2,23,"right","female","1","48","PW vs Med FW","pirogo.wav","tularo.wav",2,3,0.681696431891337,"Unfamiliar",1,55,1532,1,"Medial","PW vs FW",26.4190445448677
"224",12376,"Base_NNL_804","NNL",2,23,"right","female","1","39","PW vs In FW","dakugo.wav","godaku.wav",2,2,-1.23434873110733,"Unfamiliar",1,56,2495,1,"Initial","PW vs FW",27.4190445448677
"225",12377,"Base_NNL_805","NNL",1,21,"right","female","5","30","Word vs Fin FW","bidaro.wav","bidaku.wav",NA,2,1.3494944975745,"Unfamiliar",5,1,1875,1,"Final","Word vs FW",-27.5809554551323
"226",12378,"Base_NNL_805","NNL",1,21,"right","female","1","56","PW vs Fin FW","dotigo.wav","padobu.wav",2,4,1.07824849447084,"Unfamiliar",1,2,1129,1,"Final","PW vs FW",-26.5809554551323
"227",12379,"Base_NNL_805","NNL",1,21,"right","female","5","54","PW vs Fin FW","tupiti.wav","pirogo.wav",2,3,0.820638616656125,"Unfamiliar",5,3,1160,1,"Final","PW vs FW",-25.5809554551323
"228",12380,"Base_NNL_805","NNL",1,21,"right","female","5","33","PW vs In FW","tudaku.wav","bubida.wav",1,2,-0.625245435400968,"Unfamiliar",1,4,849,0,"Initial","PW vs FW",-24.5809554551323
"229",12381,"Base_NNL_805","NNL",1,21,"right","female","1","48","PW vs Med FW","pirogo.wav","tularo.wav",2,3,0.681696431891337,"Unfamiliar",5,5,1646,0,"Medial","PW vs FW",-23.5809554551323
"230",12382,"Base_NNL_805","NNL",1,21,"right","female","5","23","Word vs Med FW","tularo.wav","tupiro.wav",NA,3,0.681696431891337,"Unfamiliar",1,6,1435,0,"Medial","Word vs FW",-22.5809554551323
"231",12383,"Base_NNL_805","NNL",1,21,"right","female","5","15","Word vs In FW","gopiro.wav","tupiro.wav",NA,3,-0.539772457704594,"Unfamiliar",1,7,2198,0,"Initial","Word vs FW",-21.5809554551323
"232",12384,"Base_NNL_805","NNL",1,21,"right","female","1","19","Word vs Med FW","tupiro.wav","tudoro.wav",NA,3,-0.996502409603964,"Unfamiliar",1,8,2044,1,"Medial","Word vs FW",-20.5809554551323
"233",12385,"Base_NNL_805","NNL",1,21,"right","female","1","52","PW vs Fin FW","butupi.wav","tupiku.wav",1,3,1.3494944975745,"Unfamiliar",1,9,1578,1,"Final","PW vs FW",-19.5809554551323
"234",12386,"Base_NNL_805","NNL",1,21,"right","female","5","8","Word vs PW","piropa.wav","tupiro.wav",2,3,NA,"Unfamiliar",1,10,1412,0,NA,"Word vs PW",-18.5809554551323
"235",12387,"Base_NNL_805","NNL",1,21,"right","female","5","29","Word vs Fin FW","golati.wav","golabu.wav",NA,1,1.07824849447084,"Unfamiliar",1,11,1364,0,"Final","Word vs FW",-17.5809554551323
"236",12388,"Base_NNL_805","NNL",1,21,"right","female","5","7","Word vs PW","labubi.wav","golabu.wav",2,1,NA,"Unfamiliar",1,12,2100,0,NA,"Word vs PW",-16.5809554551323
"237",12389,"Base_NNL_805","NNL",1,21,"right","female","1","10","Word vs In FW","bidaku.wav","tudaku.wav",NA,2,-0.625245435400968,"Unfamiliar",5,13,2151,0,"Initial","Word vs FW",-15.5809554551323
"238",12390,"Base_NNL_805","NNL",1,21,"right","female","1","26","Word vs Fin FW","bidaku.wav","bidabu.wav",NA,2,-1.22985896637136,"Unfamiliar",1,14,1223,1,"Final","Word vs FW",-14.5809554551323
"239",12391,"Base_NNL_805","NNL",1,21,"right","female","5","32","Word vs Fin FW","padobu.wav","padoti.wav",NA,4,1.07824849447084,"Unfamiliar",1,15,2193,0,"Final","Word vs FW",-13.5809554551323
"240",12392,"Base_NNL_805","NNL",1,21,"right","female","5","45","PW vs Med FW","bilaku.wav","dakutu.wav",2,2,-1.31107860864913,"Unfamiliar",1,16,1474,0,"Medial","PW vs FW",-12.5809554551323
"241",12393,"Base_NNL_805","NNL",1,21,"right","female","1","6","Word vs PW","padoti.wav","dotitu.wav",2,4,NA,"Unfamiliar",5,17,2181,0,NA,"Word vs PW",-11.5809554551323
"242",12394,"Base_NNL_805","NNL",1,21,"right","female","5","21","Word vs Med FW","gopibu.wav","golabu.wav",NA,1,0.681696431891337,"Unfamiliar",5,18,1435,1,"Medial","Word vs FW",-10.5809554551323
"243",12395,"Base_NNL_805","NNL",1,21,"right","female","5","14","Word vs In FW","godaku.wav","bidaku.wav",NA,2,-1.23434873110733,"Unfamiliar",1,19,2293,0,"Initial","Word vs FW",-9.58095545513234
"244",12396,"Base_NNL_805","NNL",1,21,"right","female","1","43","PW vs Med FW","robida.wav","bipiku.wav",1,2,0.756281907372257,"Unfamiliar",1,20,1029,1,"Medial","PW vs FW",-8.58095545513234
"245",12397,"Base_NNL_805","NNL",1,21,"right","female","1","11","Word vs In FW","tupiro.wav","papiro.wav",NA,3,0.429540957672635,"Unfamiliar",1,21,1275,1,"Initial","Word vs FW",-7.58095545513234
"246",12398,"Base_NNL_805","NNL",1,21,"right","female","1","20","Word vs Med FW","padoti.wav","padati.wav",NA,4,1.5060831821829,"Unfamiliar",1,22,1336,1,"Medial","Word vs FW",-6.58095545513234
"247",12399,"Base_NNL_805","NNL",1,21,"right","female","1","39","PW vs In FW","dakugo.wav","godaku.wav",2,2,-1.23434873110733,"Unfamiliar",5,23,1304,0,"Initial","PW vs FW",-5.58095545513234
"248",12400,"Base_NNL_805","NNL",1,21,"right","female","1","47","PW vs Med FW","labupa.wav","gopibu.wav",2,1,0.681696431891337,"Unfamiliar",1,24,1325,1,"Medial","PW vs FW",-4.58095545513234
"249",12401,"Base_NNL_805","NNL",1,21,"right","female","5","16","Word vs In FW","godoti.wav","padoti.wav",NA,4,0.266764696187699,"Unfamiliar",1,25,997,0,"Initial","Word vs FW",-3.58095545513234
"250",12402,"Base_NNL_805","NNL",1,21,"right","female","1","28","Word vs Fin FW","padoti.wav","padoro.wav",NA,4,0.820638616656125,"Unfamiliar",1,26,1227,1,"Final","Word vs FW",-2.58095545513234
"251",12403,"Base_NNL_805","NNL",1,21,"right","female","5","49","PW vs Fin FW","bidabu.wav","robida.wav",1,2,-1.22985896637136,"Unfamiliar",5,27,1162,1,"Final","PW vs FW",-1.58095545513234
"252",12404,"Base_NNL_805","NNL",1,21,"right","female","5","50","PW vs Fin FW","padoro.wav","ropado.wav",1,4,0.820638616656125,"Unfamiliar",5,28,1708,1,"Final","PW vs FW",-0.580955455132344
"253",12405,"Base_NNL_805","NNL",1,21,"right","female","5","41","PW vs Med FW","godabu.wav","kugola.wav",1,1,-1.31107860864913,"Unfamiliar",1,29,1595,0,"Medial","PW vs FW",0.419044544867656
"254",12406,"Base_NNL_805","NNL",1,21,"right","female","1","44","PW vs Med FW","ropado.wav","padati.wav",1,4,1.5060831821829,"Unfamiliar",1,30,1288,1,"Medial","PW vs FW",1.41904454486766
"255",12407,"Base_NNL_805","NNL",1,21,"right","female","5","38","PW vs In FW","gopiro.wav","piropa.wav",2,3,-0.539772457704594,"Unfamiliar",1,31,1865,0,"Initial","PW vs FW",2.41904454486766
"256",12408,"Base_NNL_805","NNL",1,21,"right","female","1","27","Word vs Fin FW","tupiro.wav","tupiku.wav",NA,3,1.3494944975745,"Unfamiliar",1,32,1279,1,"Final","Word vs FW",3.41904454486766
"257",12409,"Base_NNL_805","NNL",1,21,"right","female","1","40","PW vs In FW","dotitu.wav","godoti.wav",2,4,0.266764696187699,"Unfamiliar",1,33,1807,1,"Initial","PW vs FW",4.41904454486766
"258",12410,"Base_NNL_805","NNL",1,21,"right","female","5","34","PW vs In FW","titupi.wav","papiro.wav",1,3,0.429540957672635,"Unfamiliar",1,34,1414,0,"Initial","PW vs FW",5.41904454486766
"259",12411,"Base_NNL_805","NNL",1,21,"right","female","1","1","Word vs PW","golabu.wav","rogola.wav",1,1,NA,"Unfamiliar",1,35,1097,1,NA,"Word vs PW",6.41904454486766
"260",12412,"Base_NNL_805","NNL",1,21,"right","female","5","24","Word vs Med FW","papiti.wav","padoti.wav",NA,4,-0.996502409603964,"Unfamiliar",1,36,1635,0,"Medial","Word vs FW",7.41904454486766
"261",12413,"Base_NNL_805","NNL",1,21,"right","female","1","55","PW vs Fin FW","dakutu.wav","bidaro.wav",2,2,1.3494944975745,"Unfamiliar",1,37,822,1,"Final","PW vs FW",8.41904454486766
"262",12414,"Base_NNL_805","NNL",1,21,"right","female","5","46","PW vs Med FW","papiti.wav","dotigo.wav",2,4,-0.996502409603964,"Unfamiliar",5,38,990,1,"Medial","PW vs FW",9.41904454486766
"263",12415,"Base_NNL_805","NNL",1,21,"right","female","5","22","Word vs Med FW","bilaku.wav","bidaku.wav",NA,2,-1.31107860864913,"Unfamiliar",1,39,956,0,"Medial","Word vs FW",10.4190445448677
"264",12416,"Base_NNL_805","NNL",1,21,"right","female","5","53","PW vs Fin FW","golati.wav","labupa.wav",2,1,1.07824849447084,"Unfamiliar",1,40,1112,0,"Final","PW vs FW",11.4190445448677
"265",12417,"Base_NNL_805","NNL",1,21,"right","female","1","51","PW vs Fin FW","kugola.wav","golaku.wav",1,1,-1.22985896637136,"Unfamiliar",5,41,1375,0,"Final","PW vs FW",12.4190445448677
"266",12418,"Base_NNL_805","NNL",1,21,"right","female","5","4","Word vs PW","kupado.wav","padoti.wav",1,4,NA,"Unfamiliar",1,42,1394,0,NA,"Word vs PW",13.4190445448677
"267",12419,"Base_NNL_805","NNL",1,21,"right","female","5","35","PW vs In FW","tudoti.wav","kupado.wav",1,4,0.429540957672635,"Unfamiliar",5,43,1652,1,"Initial","PW vs FW",14.4190445448677
"268",12420,"Base_NNL_805","NNL",1,21,"right","female","1","25","Word vs Fin FW","golabu.wav","golaku.wav",NA,1,-1.22985896637136,"Unfamiliar",5,44,1956,0,"Final","Word vs FW",15.4190445448677
"269",12421,"Base_NNL_805","NNL",1,21,"right","female","5","31","Word vs Fin FW","tupiti.wav","tupiro.wav",NA,3,0.820638616656125,"Unfamiliar",1,45,2265,0,"Final","Word vs FW",16.4190445448677
"270",12422,"Base_NNL_805","NNL",1,21,"right","female","5","3","Word vs PW","bubida.wav","bidaku.wav",1,2,NA,"Unfamiliar",5,46,1374,1,NA,"Word vs PW",17.4190445448677
"271",12423,"Base_NNL_805","NNL",1,21,"right","female","1","17","Word vs Med FW","golabu.wav","godabu.wav",NA,1,-1.31107860864913,"Unfamiliar",1,47,1261,1,"Medial","Word vs FW",18.4190445448677
"272",12424,"Base_NNL_805","NNL",1,21,"right","female","5","13","Word vs In FW","tulabu.wav","golabu.wav",NA,1,-0.539772457704594,"Unfamiliar",1,48,911,0,"Initial","Word vs FW",19.4190445448677
"273",12425,"Base_NNL_805","NNL",1,21,"right","female","1","9","Word vs In FW","golabu.wav","bilabu.wav",NA,1,-1.23434873110733,"Unfamiliar",5,49,1900,0,"Initial","Word vs FW",20.4190445448677
"274",12426,"Base_NNL_805","NNL",1,21,"right","female","1","2","Word vs PW","tupiro.wav","titupi.wav",1,3,NA,"Unfamiliar",1,50,1519,1,NA,"Word vs PW",21.4190445448677
"275",12427,"Base_NNL_805","NNL",1,21,"right","female","1","36","PW vs In FW","rogola.wav","bilabu.wav",1,1,-1.23434873110733,"Unfamiliar",1,51,1585,1,"Initial","PW vs FW",22.4190445448677
"276",12428,"Base_NNL_805","NNL",1,21,"right","female","1","18","Word vs Med FW","bidaku.wav","bipiku.wav",NA,2,0.756281907372257,"Unfamiliar",1,52,1039,1,"Medial","Word vs FW",23.4190445448677
"277",12429,"Base_NNL_805","NNL",1,21,"right","female","1","12","Word vs In FW","padoti.wav","tudoti.wav",NA,4,0.429540957672635,"Unfamiliar",1,53,1028,1,"Initial","Word vs FW",24.4190445448677
"278",12430,"Base_NNL_805","NNL",1,21,"right","female","1","5","Word vs PW","bidaku.wav","dakugo.wav",2,2,NA,"Unfamiliar",1,54,1558,1,NA,"Word vs PW",25.4190445448677
"279",12431,"Base_NNL_805","NNL",1,21,"right","female","5","37","PW vs In FW","tulabu.wav","labubi.wav",2,1,-0.539772457704594,"Unfamiliar",1,55,1941,0,"Initial","PW vs FW",26.4190445448677
"280",12432,"Base_NNL_805","NNL",1,21,"right","female","5","42","PW vs Med FW","tudoro.wav","butupi.wav",1,3,-0.996502409603964,"Unfamiliar",1,56,1647,0,"Medial","PW vs FW",27.4190445448677
"281",12433,"Base_NNL_806","NNL",2,21,"right","female","1","11","Word vs In FW","tupiro.wav","papiro.wav",NA,3,0.429540957672635,"Unfamiliar",1,1,2328,1,"Initial","Word vs FW",-27.5809554551323
"282",12434,"Base_NNL_806","NNL",2,21,"right","female","5","7","Word vs PW","labubi.wav","golabu.wav",2,1,NA,"Unfamiliar",1,2,1573,0,NA,"Word vs PW",-26.5809554551323
"283",12435,"Base_NNL_806","NNL",2,21,"right","female","5","16","Word vs In FW","godoti.wav","padoti.wav",NA,4,0.266764696187699,"Unfamiliar",1,3,1313,0,"Initial","Word vs FW",-25.5809554551323
"284",12436,"Base_NNL_806","NNL",2,21,"right","female","1","40","PW vs In FW","dotitu.wav","godoti.wav",2,4,0.266764696187699,"Unfamiliar",5,4,1049,0,"Initial","PW vs FW",-24.5809554551323
"285",12437,"Base_NNL_806","NNL",2,21,"right","female","5","45","PW vs Med FW","bilaku.wav","dakutu.wav",2,2,-1.31107860864913,"Unfamiliar",1,5,1135,0,"Medial","PW vs FW",-23.5809554551323
"286",12438,"Base_NNL_806","NNL",2,21,"right","female","5","23","Word vs Med FW","tularo.wav","tupiro.wav",NA,3,0.681696431891337,"Unfamiliar",1,6,1302,0,"Medial","Word vs FW",-22.5809554551323
"287",12439,"Base_NNL_806","NNL",2,21,"right","female","5","24","Word vs Med FW","papiti.wav","padoti.wav",NA,4,-0.996502409603964,"Unfamiliar",1,7,1336,0,"Medial","Word vs FW",-21.5809554551323
"288",12440,"Base_NNL_806","NNL",2,21,"right","female","1","28","Word vs Fin FW","padoti.wav","padoro.wav",NA,4,0.820638616656125,"Unfamiliar",5,8,1412,0,"Final","Word vs FW",-20.5809554551323
"289",12441,"Base_NNL_806","NNL",2,21,"right","female","5","35","PW vs In FW","tudoti.wav","kupado.wav",1,4,0.429540957672635,"Unfamiliar",1,9,1384,0,"Initial","PW vs FW",-19.5809554551323
"290",12442,"Base_NNL_806","NNL",2,21,"right","female","1","12","Word vs In FW","padoti.wav","tudoti.wav",NA,4,0.429540957672635,"Unfamiliar",1,10,1333,1,"Initial","Word vs FW",-18.5809554551323
"291",12443,"Base_NNL_806","NNL",2,21,"right","female","5","13","Word vs In FW","tulabu.wav","golabu.wav",NA,1,-0.539772457704594,"Unfamiliar",1,11,1128,0,"Initial","Word vs FW",-17.5809554551323
"292",12444,"Base_NNL_806","NNL",2,21,"right","female","5","29","Word vs Fin FW","golati.wav","golabu.wav",NA,1,1.07824849447084,"Unfamiliar",1,12,1241,0,"Final","Word vs FW",-16.5809554551323
"293",12445,"Base_NNL_806","NNL",2,21,"right","female","1","17","Word vs Med FW","golabu.wav","godabu.wav",NA,1,-1.31107860864913,"Unfamiliar",1,13,1271,1,"Medial","Word vs FW",-15.5809554551323
"294",12446,"Base_NNL_806","NNL",2,21,"right","female","1","25","Word vs Fin FW","golabu.wav","golaku.wav",NA,1,-1.22985896637136,"Unfamiliar",1,14,1969,1,"Final","Word vs FW",-14.5809554551323
"295",12447,"Base_NNL_806","NNL",2,21,"right","female","1","39","PW vs In FW","dakugo.wav","godaku.wav",2,2,-1.23434873110733,"Unfamiliar",5,15,1421,0,"Initial","PW vs FW",-13.5809554551323
"296",12448,"Base_NNL_806","NNL",2,21,"right","female","5","14","Word vs In FW","godaku.wav","bidaku.wav",NA,2,-1.23434873110733,"Unfamiliar",1,16,1306,0,"Initial","Word vs FW",-12.5809554551323
"297",12449,"Base_NNL_806","NNL",2,21,"right","female","1","1","Word vs PW","golabu.wav","rogola.wav",1,1,NA,"Unfamiliar",1,17,1046,1,NA,"Word vs PW",-11.5809554551323
"298",12450,"Base_NNL_806","NNL",2,21,"right","female","1","6","Word vs PW","padoti.wav","dotitu.wav",2,4,NA,"Unfamiliar",1,18,1123,1,NA,"Word vs PW",-10.5809554551323
"299",12451,"Base_NNL_806","NNL",2,21,"right","female","1","18","Word vs Med FW","bidaku.wav","bipiku.wav",NA,2,0.756281907372257,"Unfamiliar",1,19,1392,1,"Medial","Word vs FW",-9.58095545513234
"300",12452,"Base_NNL_806","NNL",2,21,"right","female","1","36","PW vs In FW","rogola.wav","bilabu.wav",1,1,-1.23434873110733,"Unfamiliar",5,20,1567,0,"Initial","PW vs FW",-8.58095545513234
"301",12453,"Base_NNL_806","NNL",2,21,"right","female","5","34","PW vs In FW","titupi.wav","papiro.wav",1,3,0.429540957672635,"Unfamiliar",5,21,1218,1,"Initial","PW vs FW",-7.58095545513234
"302",12454,"Base_NNL_806","NNL",2,21,"right","female","5","49","PW vs Fin FW","bidabu.wav","robida.wav",1,2,-1.22985896637136,"Unfamiliar",1,22,1324,0,"Final","PW vs FW",-6.58095545513234
"303",12455,"Base_NNL_806","NNL",2,21,"right","female","5","54","PW vs Fin FW","tupiti.wav","pirogo.wav",2,3,0.820638616656125,"Unfamiliar",5,23,1375,1,"Final","PW vs FW",-5.58095545513234
"304",12456,"Base_NNL_806","NNL",2,21,"right","female","5","15","Word vs In FW","gopiro.wav","tupiro.wav",NA,3,-0.539772457704594,"Unfamiliar",1,24,1329,0,"Initial","Word vs FW",-4.58095545513234
"305",12457,"Base_NNL_806","NNL",2,21,"right","female","5","41","PW vs Med FW","godabu.wav","kugola.wav",1,1,-1.31107860864913,"Unfamiliar",1,25,1552,0,"Medial","PW vs FW",-3.58095545513234
"306",12458,"Base_NNL_806","NNL",2,21,"right","female","1","9","Word vs In FW","golabu.wav","bilabu.wav",NA,1,-1.23434873110733,"Unfamiliar",1,26,1375,1,"Initial","Word vs FW",-2.58095545513234
"307",12459,"Base_NNL_806","NNL",2,21,"right","female","1","52","PW vs Fin FW","butupi.wav","tupiku.wav",1,3,1.3494944975745,"Unfamiliar",1,27,1372,1,"Final","PW vs FW",-1.58095545513234
"308",12460,"Base_NNL_806","NNL",2,21,"right","female","5","31","Word vs Fin FW","tupiti.wav","tupiro.wav",NA,3,0.820638616656125,"Unfamiliar",1,28,1359,0,"Final","Word vs FW",-0.580955455132344
"309",12461,"Base_NNL_806","NNL",2,21,"right","female","1","2","Word vs PW","tupiro.wav","titupi.wav",1,3,NA,"Unfamiliar",1,29,1335,1,NA,"Word vs PW",0.419044544867656
"310",12462,"Base_NNL_806","NNL",2,21,"right","female","5","37","PW vs In FW","tulabu.wav","labubi.wav",2,1,-0.539772457704594,"Unfamiliar",1,30,1327,0,"Initial","PW vs FW",1.41904454486766
"311",12463,"Base_NNL_806","NNL",2,21,"right","female","1","5","Word vs PW","bidaku.wav","dakugo.wav",2,2,NA,"Unfamiliar",1,31,1283,1,NA,"Word vs PW",2.41904454486766
"312",12464,"Base_NNL_806","NNL",2,21,"right","female","1","20","Word vs Med FW","padoti.wav","padati.wav",NA,4,1.5060831821829,"Unfamiliar",5,32,1476,0,"Medial","Word vs FW",3.41904454486766
"313",12465,"Base_NNL_806","NNL",2,21,"right","female","5","3","Word vs PW","bubida.wav","bidaku.wav",1,2,NA,"Unfamiliar",1,33,1393,0,NA,"Word vs PW",4.41904454486766
"314",12466,"Base_NNL_806","NNL",2,21,"right","female","5","22","Word vs Med FW","bilaku.wav","bidaku.wav",NA,2,-1.31107860864913,"Unfamiliar",5,34,1526,1,"Medial","Word vs FW",5.41904454486766
"315",12467,"Base_NNL_806","NNL",2,21,"right","female","1","55","PW vs Fin FW","dakutu.wav","bidaro.wav",2,2,1.3494944975745,"Unfamiliar",5,35,1226,0,"Final","PW vs FW",6.41904454486766
"316",12468,"Base_NNL_806","NNL",2,21,"right","female","1","47","PW vs Med FW","labupa.wav","gopibu.wav",2,1,0.681696431891337,"Unfamiliar",5,36,1381,0,"Medial","PW vs FW",7.41904454486766
"317",12469,"Base_NNL_806","NNL",2,21,"right","female","1","51","PW vs Fin FW","kugola.wav","golaku.wav",1,1,-1.22985896637136,"Unfamiliar",1,37,1251,1,"Final","PW vs FW",8.41904454486766
"318",12470,"Base_NNL_806","NNL",2,21,"right","female","5","46","PW vs Med FW","papiti.wav","dotigo.wav",2,4,-0.996502409603964,"Unfamiliar",1,38,1126,0,"Medial","PW vs FW",9.41904454486766
"319",12471,"Base_NNL_806","NNL",2,21,"right","female","5","33","PW vs In FW","tudaku.wav","bubida.wav",1,2,-0.625245435400968,"Unfamiliar",5,39,1703,1,"Initial","PW vs FW",10.4190445448677
"320",12472,"Base_NNL_806","NNL",2,21,"right","female","1","19","Word vs Med FW","tupiro.wav","tudoro.wav",NA,3,-0.996502409603964,"Unfamiliar",1,40,1271,1,"Medial","Word vs FW",11.4190445448677
"321",12473,"Base_NNL_806","NNL",2,21,"right","female","1","43","PW vs Med FW","robida.wav","bipiku.wav",1,2,0.756281907372257,"Unfamiliar",1,41,1354,1,"Medial","PW vs FW",12.4190445448677
"322",12474,"Base_NNL_806","NNL",2,21,"right","female","1","26","Word vs Fin FW","bidaku.wav","bidabu.wav",NA,2,-1.22985896637136,"Unfamiliar",1,42,1657,1,"Final","Word vs FW",13.4190445448677
"323",12475,"Base_NNL_806","NNL",2,21,"right","female","5","38","PW vs In FW","gopiro.wav","piropa.wav",2,3,-0.539772457704594,"Unfamiliar",1,43,1599,0,"Initial","PW vs FW",14.4190445448677
"324",12476,"Base_NNL_806","NNL",2,21,"right","female","5","4","Word vs PW","kupado.wav","padoti.wav",1,4,NA,"Unfamiliar",5,44,1160,1,NA,"Word vs PW",15.4190445448677
"325",12477,"Base_NNL_806","NNL",2,21,"right","female","1","56","PW vs Fin FW","dotigo.wav","padobu.wav",2,4,1.07824849447084,"Unfamiliar",1,45,1311,1,"Final","PW vs FW",16.4190445448677
"326",12478,"Base_NNL_806","NNL",2,21,"right","female","5","42","PW vs Med FW","tudoro.wav","butupi.wav",1,3,-0.996502409603964,"Unfamiliar",1,46,1424,0,"Medial","PW vs FW",17.4190445448677
"327",12479,"Base_NNL_806","NNL",2,21,"right","female","5","50","PW vs Fin FW","padoro.wav","ropado.wav",1,4,0.820638616656125,"Unfamiliar",1,47,1664,0,"Final","PW vs FW",18.4190445448677
"328",12480,"Base_NNL_806","NNL",2,21,"right","female","1","27","Word vs Fin FW","tupiro.wav","tupiku.wav",NA,3,1.3494944975745,"Unfamiliar",1,48,1404,1,"Final","Word vs FW",19.4190445448677
"329",12481,"Base_NNL_806","NNL",2,21,"right","female","1","10","Word vs In FW","bidaku.wav","tudaku.wav",NA,2,-0.625245435400968,"Unfamiliar",1,49,1573,1,"Initial","Word vs FW",20.4190445448677
"330",12482,"Base_NNL_806","NNL",2,21,"right","female","1","48","PW vs Med FW","pirogo.wav","tularo.wav",2,3,0.681696431891337,"Unfamiliar",5,50,1941,0,"Medial","PW vs FW",21.4190445448677
"331",12483,"Base_NNL_806","NNL",2,21,"right","female","5","30","Word vs Fin FW","bidaro.wav","bidaku.wav",NA,2,1.3494944975745,"Unfamiliar",1,51,1381,0,"Final","Word vs FW",22.4190445448677
"332",12484,"Base_NNL_806","NNL",2,21,"right","female","1","44","PW vs Med FW","ropado.wav","padati.wav",1,4,1.5060831821829,"Unfamiliar",5,52,1633,0,"Medial","PW vs FW",23.4190445448677
"333",12485,"Base_NNL_806","NNL",2,21,"right","female","5","53","PW vs Fin FW","golati.wav","labupa.wav",2,1,1.07824849447084,"Unfamiliar",1,53,1607,0,"Final","PW vs FW",24.4190445448677
"334",12486,"Base_NNL_806","NNL",2,21,"right","female","5","8","Word vs PW","piropa.wav","tupiro.wav",2,3,NA,"Unfamiliar",1,54,1476,0,NA,"Word vs PW",25.4190445448677
"335",12487,"Base_NNL_806","NNL",2,21,"right","female","5","32","Word vs Fin FW","padobu.wav","padoti.wav",NA,4,1.07824849447084,"Unfamiliar",5,55,1660,1,"Final","Word vs FW",26.4190445448677
"336",12488,"Base_NNL_806","NNL",2,21,"right","female","5","21","Word vs Med FW","gopibu.wav","golabu.wav",NA,1,0.681696431891337,"Unfamiliar",1,56,2142,0,"Medial","Word vs FW",27.4190445448677
"337",12489,"Base_NNL_807","NNL",1,25,"right","female","1","28","Word vs Fin FW","padoti.wav","padoro.wav",NA,4,0.820638616656125,"Unfamiliar",5,1,2606,0,"Final","Word vs FW",-27.5809554551323
"338",12490,"Base_NNL_807","NNL",1,25,"right","female","1","26","Word vs Fin FW","bidaku.wav","bidabu.wav",NA,2,-1.22985896637136,"Unfamiliar",1,2,1328,1,"Final","Word vs FW",-26.5809554551323
"339",12491,"Base_NNL_807","NNL",1,25,"right","female","5","46","PW vs Med FW","papiti.wav","dotigo.wav",2,4,-0.996502409603964,"Unfamiliar",1,3,1026,0,"Medial","PW vs FW",-25.5809554551323
"340",12492,"Base_NNL_807","NNL",1,25,"right","female","5","35","PW vs In FW","tudoti.wav","kupado.wav",1,4,0.429540957672635,"Unfamiliar",5,4,1083,1,"Initial","PW vs FW",-24.5809554551323
"341",12493,"Base_NNL_807","NNL",1,25,"right","female","5","34","PW vs In FW","titupi.wav","papiro.wav",1,3,0.429540957672635,"Unfamiliar",5,5,1079,1,"Initial","PW vs FW",-23.5809554551323
"342",12494,"Base_NNL_807","NNL",1,25,"right","female","5","16","Word vs In FW","godoti.wav","padoti.wav",NA,4,0.266764696187699,"Unfamiliar",1,6,1132,0,"Initial","Word vs FW",-22.5809554551323
"343",12495,"Base_NNL_807","NNL",1,25,"right","female","1","5","Word vs PW","bidaku.wav","dakugo.wav",2,2,NA,"Unfamiliar",5,7,1254,0,NA,"Word vs PW",-21.5809554551323
"344",12496,"Base_NNL_807","NNL",1,25,"right","female","1","44","PW vs Med FW","ropado.wav","padati.wav",1,4,1.5060831821829,"Unfamiliar",5,8,1027,0,"Medial","PW vs FW",-20.5809554551323
"345",12497,"Base_NNL_807","NNL",1,25,"right","female","5","24","Word vs Med FW","papiti.wav","padoti.wav",NA,4,-0.996502409603964,"Unfamiliar",1,9,1133,0,"Medial","Word vs FW",-19.5809554551323
"346",12498,"Base_NNL_807","NNL",1,25,"right","female","5","22","Word vs Med FW","bilaku.wav","bidaku.wav",NA,2,-1.31107860864913,"Unfamiliar",1,10,1737,0,"Medial","Word vs FW",-18.5809554551323
"347",12499,"Base_NNL_807","NNL",1,25,"right","female","1","48","PW vs Med FW","pirogo.wav","tularo.wav",2,3,0.681696431891337,"Unfamiliar",5,11,1909,0,"Medial","PW vs FW",-17.5809554551323
"348",12500,"Base_NNL_807","NNL",1,25,"right","female","5","14","Word vs In FW","godaku.wav","bidaku.wav",NA,2,-1.23434873110733,"Unfamiliar",5,12,1223,1,"Initial","Word vs FW",-16.5809554551323
"349",12501,"Base_NNL_807","NNL",1,25,"right","female","5","4","Word vs PW","kupado.wav","padoti.wav",1,4,NA,"Unfamiliar",5,13,1097,1,NA,"Word vs PW",-15.5809554551323
"350",12502,"Base_NNL_807","NNL",1,25,"right","female","1","10","Word vs In FW","bidaku.wav","tudaku.wav",NA,2,-0.625245435400968,"Unfamiliar",1,14,1222,1,"Initial","Word vs FW",-14.5809554551323
"351",12503,"Base_NNL_807","NNL",1,25,"right","female","5","30","Word vs Fin FW","bidaro.wav","bidaku.wav",NA,2,1.3494944975745,"Unfamiliar",5,15,1486,1,"Final","Word vs FW",-13.5809554551323
"352",12504,"Base_NNL_807","NNL",1,25,"right","female","5","32","Word vs Fin FW","padobu.wav","padoti.wav",NA,4,1.07824849447084,"Unfamiliar",5,16,933,1,"Final","Word vs FW",-12.5809554551323
"353",12505,"Base_NNL_807","NNL",1,25,"right","female","5","37","PW vs In FW","tulabu.wav","labubi.wav",2,1,-0.539772457704594,"Unfamiliar",1,17,1433,0,"Initial","PW vs FW",-11.5809554551323
"354",12506,"Base_NNL_807","NNL",1,25,"right","female","1","27","Word vs Fin FW","tupiro.wav","tupiku.wav",NA,3,1.3494944975745,"Unfamiliar",1,18,1333,1,"Final","Word vs FW",-10.5809554551323
"355",12507,"Base_NNL_807","NNL",1,25,"right","female","5","42","PW vs Med FW","tudoro.wav","butupi.wav",1,3,-0.996502409603964,"Unfamiliar",1,19,1079,0,"Medial","PW vs FW",-9.58095545513234
"356",12508,"Base_NNL_807","NNL",1,25,"right","female","1","2","Word vs PW","tupiro.wav","titupi.wav",1,3,NA,"Unfamiliar",5,20,1150,0,NA,"Word vs PW",-8.58095545513234
"357",12509,"Base_NNL_807","NNL",1,25,"right","female","5","33","PW vs In FW","tudaku.wav","bubida.wav",1,2,-0.625245435400968,"Unfamiliar",1,21,1056,0,"Initial","PW vs FW",-7.58095545513234
"358",12510,"Base_NNL_807","NNL",1,25,"right","female","5","45","PW vs Med FW","bilaku.wav","dakutu.wav",2,2,-1.31107860864913,"Unfamiliar",5,22,941,1,"Medial","PW vs FW",-6.58095545513234
"359",12511,"Base_NNL_807","NNL",1,25,"right","female","5","31","Word vs Fin FW","tupiti.wav","tupiro.wav",NA,3,0.820638616656125,"Unfamiliar",5,23,1180,1,"Final","Word vs FW",-5.58095545513234
"360",12512,"Base_NNL_807","NNL",1,25,"right","female","5","13","Word vs In FW","tulabu.wav","golabu.wav",NA,1,-0.539772457704594,"Unfamiliar",1,24,1312,0,"Initial","Word vs FW",-4.58095545513234
"361",12513,"Base_NNL_807","NNL",1,25,"right","female","1","51","PW vs Fin FW","kugola.wav","golaku.wav",1,1,-1.22985896637136,"Unfamiliar",1,25,1071,1,"Final","PW vs FW",-3.58095545513234
"362",12514,"Base_NNL_807","NNL",1,25,"right","female","1","9","Word vs In FW","golabu.wav","bilabu.wav",NA,1,-1.23434873110733,"Unfamiliar",1,26,876,1,"Initial","Word vs FW",-2.58095545513234
"363",12515,"Base_NNL_807","NNL",1,25,"right","female","5","50","PW vs Fin FW","padoro.wav","ropado.wav",1,4,0.820638616656125,"Unfamiliar",1,27,935,0,"Final","PW vs FW",-1.58095545513234
"364",12516,"Base_NNL_807","NNL",1,25,"right","female","1","56","PW vs Fin FW","dotigo.wav","padobu.wav",2,4,1.07824849447084,"Unfamiliar",1,28,1170,1,"Final","PW vs FW",-0.580955455132344
"365",12517,"Base_NNL_807","NNL",1,25,"right","female","5","49","PW vs Fin FW","bidabu.wav","robida.wav",1,2,-1.22985896637136,"Unfamiliar",1,29,1149,0,"Final","PW vs FW",0.419044544867656
"366",12518,"Base_NNL_807","NNL",1,25,"right","female","5","3","Word vs PW","bubida.wav","bidaku.wav",1,2,NA,"Unfamiliar",1,30,2093,0,NA,"Word vs PW",1.41904454486766
"367",12519,"Base_NNL_807","NNL",1,25,"right","female","5","21","Word vs Med FW","gopibu.wav","golabu.wav",NA,1,0.681696431891337,"Unfamiliar",1,31,1205,0,"Medial","Word vs FW",2.41904454486766
"368",12520,"Base_NNL_807","NNL",1,25,"right","female","1","12","Word vs In FW","padoti.wav","tudoti.wav",NA,4,0.429540957672635,"Unfamiliar",1,32,957,1,"Initial","Word vs FW",3.41904454486766
"369",12521,"Base_NNL_807","NNL",1,25,"right","female","5","7","Word vs PW","labubi.wav","golabu.wav",2,1,NA,"Unfamiliar",5,33,1001,1,NA,"Word vs PW",4.41904454486766
"370",12522,"Base_NNL_807","NNL",1,25,"right","female","1","20","Word vs Med FW","padoti.wav","padati.wav",NA,4,1.5060831821829,"Unfamiliar",1,34,1116,1,"Medial","Word vs FW",5.41904454486766
"371",12523,"Base_NNL_807","NNL",1,25,"right","female","1","47","PW vs Med FW","labupa.wav","gopibu.wav",2,1,0.681696431891337,"Unfamiliar",1,35,1129,1,"Medial","PW vs FW",6.41904454486766
"372",12524,"Base_NNL_807","NNL",1,25,"right","female","5","54","PW vs Fin FW","tupiti.wav","pirogo.wav",2,3,0.820638616656125,"Unfamiliar",5,36,1365,1,"Final","PW vs FW",7.41904454486766
"373",12525,"Base_NNL_807","NNL",1,25,"right","female","5","23","Word vs Med FW","tularo.wav","tupiro.wav",NA,3,0.681696431891337,"Unfamiliar",5,37,1125,1,"Medial","Word vs FW",8.41904454486766
"374",12526,"Base_NNL_807","NNL",1,25,"right","female","1","18","Word vs Med FW","bidaku.wav","bipiku.wav",NA,2,0.756281907372257,"Unfamiliar",1,38,1304,1,"Medial","Word vs FW",9.41904454486766
"375",12527,"Base_NNL_807","NNL",1,25,"right","female","5","41","PW vs Med FW","godabu.wav","kugola.wav",1,1,-1.31107860864913,"Unfamiliar",5,39,1126,1,"Medial","PW vs FW",10.4190445448677
"376",12528,"Base_NNL_807","NNL",1,25,"right","female","5","53","PW vs Fin FW","golati.wav","labupa.wav",2,1,1.07824849447084,"Unfamiliar",1,40,2189,0,"Final","PW vs FW",11.4190445448677
"377",12529,"Base_NNL_807","NNL",1,25,"right","female","1","6","Word vs PW","padoti.wav","dotitu.wav",2,4,NA,"Unfamiliar",5,41,1233,0,NA,"Word vs PW",12.4190445448677
"378",12530,"Base_NNL_807","NNL",1,25,"right","female","5","29","Word vs Fin FW","golati.wav","golabu.wav",NA,1,1.07824849447084,"Unfamiliar",1,42,1601,0,"Final","Word vs FW",13.4190445448677
"379",12531,"Base_NNL_807","NNL",1,25,"right","female","1","11","Word vs In FW","tupiro.wav","papiro.wav",NA,3,0.429540957672635,"Unfamiliar",5,43,1327,0,"Initial","Word vs FW",14.4190445448677
"380",12532,"Base_NNL_807","NNL",1,25,"right","female","1","36","PW vs In FW","rogola.wav","bilabu.wav",1,1,-1.23434873110733,"Unfamiliar",5,44,1250,0,"Initial","PW vs FW",15.4190445448677
"381",12533,"Base_NNL_807","NNL",1,25,"right","female","1","55","PW vs Fin FW","dakutu.wav","bidaro.wav",2,2,1.3494944975745,"Unfamiliar",5,45,1833,0,"Final","PW vs FW",16.4190445448677
"382",12534,"Base_NNL_807","NNL",1,25,"right","female","5","8","Word vs PW","piropa.wav","tupiro.wav",2,3,NA,"Unfamiliar",1,46,1571,0,NA,"Word vs PW",17.4190445448677
"383",12535,"Base_NNL_807","NNL",1,25,"right","female","1","17","Word vs Med FW","golabu.wav","godabu.wav",NA,1,-1.31107860864913,"Unfamiliar",1,47,1707,1,"Medial","Word vs FW",18.4190445448677
"384",12536,"Base_NNL_807","NNL",1,25,"right","female","1","39","PW vs In FW","dakugo.wav","godaku.wav",2,2,-1.23434873110733,"Unfamiliar",1,48,1072,1,"Initial","PW vs FW",19.4190445448677
"385",12537,"Base_NNL_807","NNL",1,25,"right","female","1","43","PW vs Med FW","robida.wav","bipiku.wav",1,2,0.756281907372257,"Unfamiliar",1,49,1323,1,"Medial","PW vs FW",20.4190445448677
"386",12538,"Base_NNL_807","NNL",1,25,"right","female","1","25","Word vs Fin FW","golabu.wav","golaku.wav",NA,1,-1.22985896637136,"Unfamiliar",1,50,1530,1,"Final","Word vs FW",21.4190445448677
"387",12539,"Base_NNL_807","NNL",1,25,"right","female","1","1","Word vs PW","golabu.wav","rogola.wav",1,1,NA,"Unfamiliar",1,51,1425,1,NA,"Word vs PW",22.4190445448677
"388",12540,"Base_NNL_807","NNL",1,25,"right","female","1","52","PW vs Fin FW","butupi.wav","tupiku.wav",1,3,1.3494944975745,"Unfamiliar",5,52,2020,0,"Final","PW vs FW",23.4190445448677
"389",12541,"Base_NNL_807","NNL",1,25,"right","female","5","38","PW vs In FW","gopiro.wav","piropa.wav",2,3,-0.539772457704594,"Unfamiliar",1,53,1119,0,"Initial","PW vs FW",24.4190445448677
"390",12542,"Base_NNL_807","NNL",1,25,"right","female","1","40","PW vs In FW","dotitu.wav","godoti.wav",2,4,0.266764696187699,"Unfamiliar",5,54,2051,0,"Initial","PW vs FW",25.4190445448677
"391",12543,"Base_NNL_807","NNL",1,25,"right","female","1","19","Word vs Med FW","tupiro.wav","tudoro.wav",NA,3,-0.996502409603964,"Unfamiliar",1,55,1509,1,"Medial","Word vs FW",26.4190445448677
"392",12544,"Base_NNL_807","NNL",1,25,"right","female","5","15","Word vs In FW","gopiro.wav","tupiro.wav",NA,3,-0.539772457704594,"Unfamiliar",1,56,912,0,"Initial","Word vs FW",27.4190445448677
"393",12545,"Base_NNL_808","NNL",2,19,"right","female","5","53","PW vs Fin FW","golati.wav","labupa.wav",2,1,1.07824849447084,"Unfamiliar",5,1,3960,1,"Final","PW vs FW",-27.5809554551323
"394",12546,"Base_NNL_808","NNL",2,19,"right","female","1","12","Word vs In FW","padoti.wav","tudoti.wav",NA,4,0.429540957672635,"Unfamiliar",1,2,2352,1,"Initial","Word vs FW",-26.5809554551323
"395",12547,"Base_NNL_808","NNL",2,19,"right","female","5","41","PW vs Med FW","godabu.wav","kugola.wav",1,1,-1.31107860864913,"Unfamiliar",1,3,2831,0,"Medial","PW vs FW",-25.5809554551323
"396",12548,"Base_NNL_808","NNL",2,19,"right","female","5","8","Word vs PW","piropa.wav","tupiro.wav",2,3,NA,"Unfamiliar",1,4,1250,0,NA,"Word vs PW",-24.5809554551323
"397",12549,"Base_NNL_808","NNL",2,19,"right","female","1","39","PW vs In FW","dakugo.wav","godaku.wav",2,2,-1.23434873110733,"Unfamiliar",1,5,1297,1,"Initial","PW vs FW",-23.5809554551323
"398",12550,"Base_NNL_808","NNL",2,19,"right","female","1","55","PW vs Fin FW","dakutu.wav","bidaro.wav",2,2,1.3494944975745,"Unfamiliar",5,6,1169,0,"Final","PW vs FW",-22.5809554551323
"399",12551,"Base_NNL_808","NNL",2,19,"right","female","5","3","Word vs PW","bubida.wav","bidaku.wav",1,2,NA,"Unfamiliar",5,7,1903,1,NA,"Word vs PW",-21.5809554551323
"400",12552,"Base_NNL_808","NNL",2,19,"right","female","1","51","PW vs Fin FW","kugola.wav","golaku.wav",1,1,-1.22985896637136,"Unfamiliar",5,8,1791,0,"Final","PW vs FW",-20.5809554551323
"401",12553,"Base_NNL_808","NNL",2,19,"right","female","1","19","Word vs Med FW","tupiro.wav","tudoro.wav",NA,3,-0.996502409603964,"Unfamiliar",1,9,1163,1,"Medial","Word vs FW",-19.5809554551323
"402",12554,"Base_NNL_808","NNL",2,19,"right","female","5","35","PW vs In FW","tudoti.wav","kupado.wav",1,4,0.429540957672635,"Unfamiliar",5,10,1310,1,"Initial","PW vs FW",-18.5809554551323
"403",12555,"Base_NNL_808","NNL",2,19,"right","female","5","46","PW vs Med FW","papiti.wav","dotigo.wav",2,4,-0.996502409603964,"Unfamiliar",1,11,1081,0,"Medial","PW vs FW",-17.5809554551323
"404",12556,"Base_NNL_808","NNL",2,19,"right","female","1","6","Word vs PW","padoti.wav","dotitu.wav",2,4,NA,"Unfamiliar",1,12,1332,1,NA,"Word vs PW",-16.5809554551323
"405",12557,"Base_NNL_808","NNL",2,19,"right","female","5","42","PW vs Med FW","tudoro.wav","butupi.wav",1,3,-0.996502409603964,"Unfamiliar",1,13,1595,0,"Medial","PW vs FW",-15.5809554551323
"406",12558,"Base_NNL_808","NNL",2,19,"right","female","5","54","PW vs Fin FW","tupiti.wav","pirogo.wav",2,3,0.820638616656125,"Unfamiliar",5,14,1009,1,"Final","PW vs FW",-14.5809554551323
"407",12559,"Base_NNL_808","NNL",2,19,"right","female","1","1","Word vs PW","golabu.wav","rogola.wav",1,1,NA,"Unfamiliar",1,15,1462,1,NA,"Word vs PW",-13.5809554551323
"408",12560,"Base_NNL_808","NNL",2,19,"right","female","5","33","PW vs In FW","tudaku.wav","bubida.wav",1,2,-0.625245435400968,"Unfamiliar",1,16,1316,0,"Initial","PW vs FW",-12.5809554551323
"409",12561,"Base_NNL_808","NNL",2,19,"right","female","1","27","Word vs Fin FW","tupiro.wav","tupiku.wav",NA,3,1.3494944975745,"Unfamiliar",1,17,1114,1,"Final","Word vs FW",-11.5809554551323
"410",12562,"Base_NNL_808","NNL",2,19,"right","female","5","22","Word vs Med FW","bilaku.wav","bidaku.wav",NA,2,-1.31107860864913,"Unfamiliar",5,18,1609,1,"Medial","Word vs FW",-10.5809554551323
"411",12563,"Base_NNL_808","NNL",2,19,"right","female","5","38","PW vs In FW","gopiro.wav","piropa.wav",2,3,-0.539772457704594,"Unfamiliar",5,19,1574,1,"Initial","PW vs FW",-9.58095545513234
"412",12564,"Base_NNL_808","NNL",2,19,"right","female","5","49","PW vs Fin FW","bidabu.wav","robida.wav",1,2,-1.22985896637136,"Unfamiliar",5,20,1283,1,"Final","PW vs FW",-8.58095545513234
"413",12565,"Base_NNL_808","NNL",2,19,"right","female","1","11","Word vs In FW","tupiro.wav","papiro.wav",NA,3,0.429540957672635,"Unfamiliar",1,21,994,1,"Initial","Word vs FW",-7.58095545513234
"414",12566,"Base_NNL_808","NNL",2,19,"right","female","1","10","Word vs In FW","bidaku.wav","tudaku.wav",NA,2,-0.625245435400968,"Unfamiliar",1,22,940,1,"Initial","Word vs FW",-6.58095545513234
"415",12567,"Base_NNL_808","NNL",2,19,"right","female","5","4","Word vs PW","kupado.wav","padoti.wav",1,4,NA,"Unfamiliar",5,23,1049,1,NA,"Word vs PW",-5.58095545513234
"416",12568,"Base_NNL_808","NNL",2,19,"right","female","5","37","PW vs In FW","tulabu.wav","labubi.wav",2,1,-0.539772457704594,"Unfamiliar",5,24,936,1,"Initial","PW vs FW",-4.58095545513234
"417",12569,"Base_NNL_808","NNL",2,19,"right","female","1","9","Word vs In FW","golabu.wav","bilabu.wav",NA,1,-1.23434873110733,"Unfamiliar",5,25,1265,0,"Initial","Word vs FW",-3.58095545513234
"418",12570,"Base_NNL_808","NNL",2,19,"right","female","5","29","Word vs Fin FW","golati.wav","golabu.wav",NA,1,1.07824849447084,"Unfamiliar",5,26,1232,1,"Final","Word vs FW",-2.58095545513234
"419",12571,"Base_NNL_808","NNL",2,19,"right","female","5","21","Word vs Med FW","gopibu.wav","golabu.wav",NA,1,0.681696431891337,"Unfamiliar",1,27,924,0,"Medial","Word vs FW",-1.58095545513234
"420",12572,"Base_NNL_808","NNL",2,19,"right","female","1","44","PW vs Med FW","ropado.wav","padati.wav",1,4,1.5060831821829,"Unfamiliar",1,28,844,1,"Medial","PW vs FW",-0.580955455132344
"421",12573,"Base_NNL_808","NNL",2,19,"right","female","5","23","Word vs Med FW","tularo.wav","tupiro.wav",NA,3,0.681696431891337,"Unfamiliar",1,29,907,0,"Medial","Word vs FW",0.419044544867656
"422",12574,"Base_NNL_808","NNL",2,19,"right","female","5","30","Word vs Fin FW","bidaro.wav","bidaku.wav",NA,2,1.3494944975745,"Unfamiliar",1,30,1013,0,"Final","Word vs FW",1.41904454486766
"423",12575,"Base_NNL_808","NNL",2,19,"right","female","1","56","PW vs Fin FW","dotigo.wav","padobu.wav",2,4,1.07824849447084,"Unfamiliar",1,31,992,1,"Final","PW vs FW",2.41904454486766
"424",12576,"Base_NNL_808","NNL",2,19,"right","female","5","45","PW vs Med FW","bilaku.wav","dakutu.wav",2,2,-1.31107860864913,"Unfamiliar",5,32,1157,1,"Medial","PW vs FW",3.41904454486766
"425",12577,"Base_NNL_808","NNL",2,19,"right","female","1","18","Word vs Med FW","bidaku.wav","bipiku.wav",NA,2,0.756281907372257,"Unfamiliar",1,33,1004,1,"Medial","Word vs FW",4.41904454486766
"426",12578,"Base_NNL_808","NNL",2,19,"right","female","5","32","Word vs Fin FW","padobu.wav","padoti.wav",NA,4,1.07824849447084,"Unfamiliar",1,34,1137,0,"Final","Word vs FW",5.41904454486766
"427",12579,"Base_NNL_808","NNL",2,19,"right","female","1","25","Word vs Fin FW","golabu.wav","golaku.wav",NA,1,-1.22985896637136,"Unfamiliar",1,35,985,1,"Final","Word vs FW",6.41904454486766
"428",12580,"Base_NNL_808","NNL",2,19,"right","female","5","14","Word vs In FW","godaku.wav","bidaku.wav",NA,2,-1.23434873110733,"Unfamiliar",1,36,937,0,"Initial","Word vs FW",7.41904454486766
"429",12581,"Base_NNL_808","NNL",2,19,"right","female","1","40","PW vs In FW","dotitu.wav","godoti.wav",2,4,0.266764696187699,"Unfamiliar",1,37,1087,1,"Initial","PW vs FW",8.41904454486766
"430",12582,"Base_NNL_808","NNL",2,19,"right","female","1","48","PW vs Med FW","pirogo.wav","tularo.wav",2,3,0.681696431891337,"Unfamiliar",1,38,1150,1,"Medial","PW vs FW",9.41904454486766
"431",12583,"Base_NNL_808","NNL",2,19,"right","female","5","50","PW vs Fin FW","padoro.wav","ropado.wav",1,4,0.820638616656125,"Unfamiliar",5,39,802,1,"Final","PW vs FW",10.4190445448677
"432",12584,"Base_NNL_808","NNL",2,19,"right","female","1","28","Word vs Fin FW","padoti.wav","padoro.wav",NA,4,0.820638616656125,"Unfamiliar",1,40,970,1,"Final","Word vs FW",11.4190445448677
"433",12585,"Base_NNL_808","NNL",2,19,"right","female","1","52","PW vs Fin FW","butupi.wav","tupiku.wav",1,3,1.3494944975745,"Unfamiliar",1,41,957,1,"Final","PW vs FW",12.4190445448677
"434",12586,"Base_NNL_808","NNL",2,19,"right","female","1","20","Word vs Med FW","padoti.wav","padati.wav",NA,4,1.5060831821829,"Unfamiliar",5,42,868,0,"Medial","Word vs FW",13.4190445448677
"435",12587,"Base_NNL_808","NNL",2,19,"right","female","5","34","PW vs In FW","titupi.wav","papiro.wav",1,3,0.429540957672635,"Unfamiliar",1,43,911,0,"Initial","PW vs FW",14.4190445448677
"436",12588,"Base_NNL_808","NNL",2,19,"right","female","5","16","Word vs In FW","godoti.wav","padoti.wav",NA,4,0.266764696187699,"Unfamiliar",1,44,1291,0,"Initial","Word vs FW",15.4190445448677
"437",12589,"Base_NNL_808","NNL",2,19,"right","female","1","43","PW vs Med FW","robida.wav","bipiku.wav",1,2,0.756281907372257,"Unfamiliar",1,45,1112,1,"Medial","PW vs FW",16.4190445448677
"438",12590,"Base_NNL_808","NNL",2,19,"right","female","5","13","Word vs In FW","tulabu.wav","golabu.wav",NA,1,-0.539772457704594,"Unfamiliar",1,46,1036,0,"Initial","Word vs FW",17.4190445448677
"439",12591,"Base_NNL_808","NNL",2,19,"right","female","1","36","PW vs In FW","rogola.wav","bilabu.wav",1,1,-1.23434873110733,"Unfamiliar",5,47,971,0,"Initial","PW vs FW",18.4190445448677
"440",12592,"Base_NNL_808","NNL",2,19,"right","female","1","47","PW vs Med FW","labupa.wav","gopibu.wav",2,1,0.681696431891337,"Unfamiliar",1,48,1072,1,"Medial","PW vs FW",19.4190445448677
"441",12593,"Base_NNL_808","NNL",2,19,"right","female","5","31","Word vs Fin FW","tupiti.wav","tupiro.wav",NA,3,0.820638616656125,"Unfamiliar",5,49,1027,1,"Final","Word vs FW",20.4190445448677
"442",12594,"Base_NNL_808","NNL",2,19,"right","female","1","2","Word vs PW","tupiro.wav","titupi.wav",1,3,NA,"Unfamiliar",5,50,1060,0,NA,"Word vs PW",21.4190445448677
"443",12595,"Base_NNL_808","NNL",2,19,"right","female","1","17","Word vs Med FW","golabu.wav","godabu.wav",NA,1,-1.31107860864913,"Unfamiliar",5,51,1484,0,"Medial","Word vs FW",22.4190445448677
"444",12596,"Base_NNL_808","NNL",2,19,"right","female","1","26","Word vs Fin FW","bidaku.wav","bidabu.wav",NA,2,-1.22985896637136,"Unfamiliar",5,52,1163,0,"Final","Word vs FW",23.4190445448677
"445",12597,"Base_NNL_808","NNL",2,19,"right","female","5","7","Word vs PW","labubi.wav","golabu.wav",2,1,NA,"Unfamiliar",1,53,1164,0,NA,"Word vs PW",24.4190445448677
"446",12598,"Base_NNL_808","NNL",2,19,"right","female","5","15","Word vs In FW","gopiro.wav","tupiro.wav",NA,3,-0.539772457704594,"Unfamiliar",1,54,1081,0,"Initial","Word vs FW",25.4190445448677
"447",12599,"Base_NNL_808","NNL",2,19,"right","female","5","24","Word vs Med FW","papiti.wav","padoti.wav",NA,4,-0.996502409603964,"Unfamiliar",1,55,1255,0,"Medial","Word vs FW",26.4190445448677
"448",12600,"Base_NNL_808","NNL",2,19,"right","female","1","5","Word vs PW","bidaku.wav","dakugo.wav",2,2,NA,"Unfamiliar",1,56,1065,1,NA,"Word vs PW",27.4190445448677
"449",12601,"Base_NNL_809","NNL",1,20,"right","male","1","56","PW vs Fin FW","dotigo.wav","padobu.wav",2,4,1.07824849447084,"Unfamiliar",1,1,5519,1,"Final","PW vs FW",-27.5809554551323
"450",12602,"Base_NNL_809","NNL",1,20,"right","male","1","20","Word vs Med FW","padoti.wav","padati.wav",NA,4,1.5060831821829,"Unfamiliar",1,2,2983,1,"Medial","Word vs FW",-26.5809554551323
"451",12603,"Base_NNL_809","NNL",1,20,"right","male","5","32","Word vs Fin FW","padobu.wav","padoti.wav",NA,4,1.07824849447084,"Unfamiliar",5,3,2642,1,"Final","Word vs FW",-25.5809554551323
"452",12604,"Base_NNL_809","NNL",1,20,"right","male","1","48","PW vs Med FW","pirogo.wav","tularo.wav",2,3,0.681696431891337,"Unfamiliar",1,4,2248,1,"Medial","PW vs FW",-24.5809554551323
"453",12605,"Base_NNL_809","NNL",1,20,"right","male","1","17","Word vs Med FW","golabu.wav","godabu.wav",NA,1,-1.31107860864913,"Unfamiliar",1,5,2822,1,"Medial","Word vs FW",-23.5809554551323
"454",12606,"Base_NNL_809","NNL",1,20,"right","male","1","47","PW vs Med FW","labupa.wav","gopibu.wav",2,1,0.681696431891337,"Unfamiliar",5,6,2617,0,"Medial","PW vs FW",-22.5809554551323
"455",12607,"Base_NNL_809","NNL",1,20,"right","male","1","12","Word vs In FW","padoti.wav","tudoti.wav",NA,4,0.429540957672635,"Unfamiliar",1,7,2169,1,"Initial","Word vs FW",-21.5809554551323
"456",12608,"Base_NNL_809","NNL",1,20,"right","male","5","41","PW vs Med FW","godabu.wav","kugola.wav",1,1,-1.31107860864913,"Unfamiliar",1,8,1600,0,"Medial","PW vs FW",-20.5809554551323
"457",12609,"Base_NNL_809","NNL",1,20,"right","male","1","1","Word vs PW","golabu.wav","rogola.wav",1,1,NA,"Unfamiliar",1,9,1803,1,NA,"Word vs PW",-19.5809554551323
"458",12610,"Base_NNL_809","NNL",1,20,"right","male","1","9","Word vs In FW","golabu.wav","bilabu.wav",NA,1,-1.23434873110733,"Unfamiliar",1,10,1867,1,"Initial","Word vs FW",-18.5809554551323
"459",12611,"Base_NNL_809","NNL",1,20,"right","male","5","30","Word vs Fin FW","bidaro.wav","bidaku.wav",NA,2,1.3494944975745,"Unfamiliar",1,11,2878,0,"Final","Word vs FW",-17.5809554551323
"460",12612,"Base_NNL_809","NNL",1,20,"right","male","1","11","Word vs In FW","tupiro.wav","papiro.wav",NA,3,0.429540957672635,"Unfamiliar",1,12,2507,1,"Initial","Word vs FW",-16.5809554551323
"461",12613,"Base_NNL_809","NNL",1,20,"right","male","5","49","PW vs Fin FW","bidabu.wav","robida.wav",1,2,-1.22985896637136,"Unfamiliar",1,13,1344,0,"Final","PW vs FW",-15.5809554551323
"462",12614,"Base_NNL_809","NNL",1,20,"right","male","5","7","Word vs PW","labubi.wav","golabu.wav",2,1,NA,"Unfamiliar",5,14,2024,1,NA,"Word vs PW",-14.5809554551323
"463",12615,"Base_NNL_809","NNL",1,20,"right","male","1","28","Word vs Fin FW","padoti.wav","padoro.wav",NA,4,0.820638616656125,"Unfamiliar",1,15,1447,1,"Final","Word vs FW",-13.5809554551323
"464",12616,"Base_NNL_809","NNL",1,20,"right","male","1","39","PW vs In FW","dakugo.wav","godaku.wav",2,2,-1.23434873110733,"Unfamiliar",5,16,1047,0,"Initial","PW vs FW",-12.5809554551323
"465",12617,"Base_NNL_809","NNL",1,20,"right","male","1","36","PW vs In FW","rogola.wav","bilabu.wav",1,1,-1.23434873110733,"Unfamiliar",5,17,3033,0,"Initial","PW vs FW",-11.5809554551323
"466",12618,"Base_NNL_809","NNL",1,20,"right","male","1","6","Word vs PW","padoti.wav","dotitu.wav",2,4,NA,"Unfamiliar",5,18,953,0,NA,"Word vs PW",-10.5809554551323
"467",12619,"Base_NNL_809","NNL",1,20,"right","male","5","13","Word vs In FW","tulabu.wav","golabu.wav",NA,1,-0.539772457704594,"Unfamiliar",1,19,3170,0,"Initial","Word vs FW",-9.58095545513234
"468",12620,"Base_NNL_809","NNL",1,20,"right","male","5","8","Word vs PW","piropa.wav","tupiro.wav",2,3,NA,"Unfamiliar",1,20,1682,0,NA,"Word vs PW",-8.58095545513234
"469",12621,"Base_NNL_809","NNL",1,20,"right","male","1","5","Word vs PW","bidaku.wav","dakugo.wav",2,2,NA,"Unfamiliar",1,21,1203,1,NA,"Word vs PW",-7.58095545513234
"470",12622,"Base_NNL_809","NNL",1,20,"right","male","1","55","PW vs Fin FW","dakutu.wav","bidaro.wav",2,2,1.3494944975745,"Unfamiliar",1,22,1024,1,"Final","PW vs FW",-6.58095545513234
"471",12623,"Base_NNL_809","NNL",1,20,"right","male","5","37","PW vs In FW","tulabu.wav","labubi.wav",2,1,-0.539772457704594,"Unfamiliar",5,23,1333,1,"Initial","PW vs FW",-5.58095545513234
"472",12624,"Base_NNL_809","NNL",1,20,"right","male","5","23","Word vs Med FW","tularo.wav","tupiro.wav",NA,3,0.681696431891337,"Unfamiliar",1,24,1650,0,"Medial","Word vs FW",-4.58095545513234
"473",12625,"Base_NNL_809","NNL",1,20,"right","male","1","27","Word vs Fin FW","tupiro.wav","tupiku.wav",NA,3,1.3494944975745,"Unfamiliar",1,25,1405,1,"Final","Word vs FW",-3.58095545513234
"474",12626,"Base_NNL_809","NNL",1,20,"right","male","5","34","PW vs In FW","titupi.wav","papiro.wav",1,3,0.429540957672635,"Unfamiliar",5,26,1426,1,"Initial","PW vs FW",-2.58095545513234
"475",12627,"Base_NNL_809","NNL",1,20,"right","male","1","25","Word vs Fin FW","golabu.wav","golaku.wav",NA,1,-1.22985896637136,"Unfamiliar",1,27,1711,1,"Final","Word vs FW",-1.58095545513234
"476",12628,"Base_NNL_809","NNL",1,20,"right","male","5","29","Word vs Fin FW","golati.wav","golabu.wav",NA,1,1.07824849447084,"Unfamiliar",1,28,1557,0,"Final","Word vs FW",-0.580955455132344
"477",12629,"Base_NNL_809","NNL",1,20,"right","male","5","15","Word vs In FW","gopiro.wav","tupiro.wav",NA,3,-0.539772457704594,"Unfamiliar",1,29,3615,0,"Initial","Word vs FW",0.419044544867656
"478",12630,"Base_NNL_809","NNL",1,20,"right","male","5","21","Word vs Med FW","gopibu.wav","golabu.wav",NA,1,0.681696431891337,"Unfamiliar",1,30,1678,0,"Medial","Word vs FW",1.41904454486766
"479",12631,"Base_NNL_809","NNL",1,20,"right","male","1","19","Word vs Med FW","tupiro.wav","tudoro.wav",NA,3,-0.996502409603964,"Unfamiliar",1,31,2660,1,"Medial","Word vs FW",2.41904454486766
"480",12632,"Base_NNL_809","NNL",1,20,"right","male","5","31","Word vs Fin FW","tupiti.wav","tupiro.wav",NA,3,0.820638616656125,"Unfamiliar",1,32,1291,0,"Final","Word vs FW",3.41904454486766
"481",12633,"Base_NNL_809","NNL",1,20,"right","male","5","22","Word vs Med FW","bilaku.wav","bidaku.wav",NA,2,-1.31107860864913,"Unfamiliar",1,33,2265,0,"Medial","Word vs FW",4.41904454486766
"482",12634,"Base_NNL_809","NNL",1,20,"right","male","5","24","Word vs Med FW","papiti.wav","padoti.wav",NA,4,-0.996502409603964,"Unfamiliar",1,34,1553,0,"Medial","Word vs FW",5.41904454486766
"483",12635,"Base_NNL_809","NNL",1,20,"right","male","1","10","Word vs In FW","bidaku.wav","tudaku.wav",NA,2,-0.625245435400968,"Unfamiliar",1,35,1670,1,"Initial","Word vs FW",6.41904454486766
"484",12636,"Base_NNL_809","NNL",1,20,"right","male","5","14","Word vs In FW","godaku.wav","bidaku.wav",NA,2,-1.23434873110733,"Unfamiliar",1,36,2707,0,"Initial","Word vs FW",7.41904454486766
"485",12637,"Base_NNL_809","NNL",1,20,"right","male","5","3","Word vs PW","bubida.wav","bidaku.wav",1,2,NA,"Unfamiliar",1,37,2910,0,NA,"Word vs PW",8.41904454486766
"486",12638,"Base_NNL_809","NNL",1,20,"right","male","5","4","Word vs PW","kupado.wav","padoti.wav",1,4,NA,"Unfamiliar",5,38,1581,1,NA,"Word vs PW",9.41904454486766
"487",12639,"Base_NNL_809","NNL",1,20,"right","male","5","38","PW vs In FW","gopiro.wav","piropa.wav",2,3,-0.539772457704594,"Unfamiliar",1,39,2019,0,"Initial","PW vs FW",10.4190445448677
"488",12640,"Base_NNL_809","NNL",1,20,"right","male","5","16","Word vs In FW","godoti.wav","padoti.wav",NA,4,0.266764696187699,"Unfamiliar",5,40,2713,1,"Initial","Word vs FW",11.4190445448677
"489",12641,"Base_NNL_809","NNL",1,20,"right","male","5","46","PW vs Med FW","papiti.wav","dotigo.wav",2,4,-0.996502409603964,"Unfamiliar",1,41,1712,0,"Medial","PW vs FW",12.4190445448677
"490",12642,"Base_NNL_809","NNL",1,20,"right","male","1","51","PW vs Fin FW","kugola.wav","golaku.wav",1,1,-1.22985896637136,"Unfamiliar",1,42,2649,1,"Final","PW vs FW",13.4190445448677
"491",12643,"Base_NNL_809","NNL",1,20,"right","male","5","35","PW vs In FW","tudoti.wav","kupado.wav",1,4,0.429540957672635,"Unfamiliar",1,43,1115,0,"Initial","PW vs FW",14.4190445448677
"492",12644,"Base_NNL_809","NNL",1,20,"right","male","5","45","PW vs Med FW","bilaku.wav","dakutu.wav",2,2,-1.31107860864913,"Unfamiliar",5,44,1475,1,"Medial","PW vs FW",15.4190445448677
"493",12645,"Base_NNL_809","NNL",1,20,"right","male","1","26","Word vs Fin FW","bidaku.wav","bidabu.wav",NA,2,-1.22985896637136,"Unfamiliar",1,45,2006,1,"Final","Word vs FW",16.4190445448677
"494",12646,"Base_NNL_809","NNL",1,20,"right","male","1","18","Word vs Med FW","bidaku.wav","bipiku.wav",NA,2,0.756281907372257,"Unfamiliar",1,46,3441,1,"Medial","Word vs FW",17.4190445448677
"495",12647,"Base_NNL_809","NNL",1,20,"right","male","1","40","PW vs In FW","dotitu.wav","godoti.wav",2,4,0.266764696187699,"Unfamiliar",5,47,1157,0,"Initial","PW vs FW",18.4190445448677
"496",12648,"Base_NNL_809","NNL",1,20,"right","male","5","53","PW vs Fin FW","golati.wav","labupa.wav",2,1,1.07824849447084,"Unfamiliar",1,48,1585,0,"Final","PW vs FW",19.4190445448677
"497",12649,"Base_NNL_809","NNL",1,20,"right","male","1","43","PW vs Med FW","robida.wav","bipiku.wav",1,2,0.756281907372257,"Unfamiliar",1,49,1966,1,"Medial","PW vs FW",20.4190445448677
"498",12650,"Base_NNL_809","NNL",1,20,"right","male","5","33","PW vs In FW","tudaku.wav","bubida.wav",1,2,-0.625245435400968,"Unfamiliar",1,50,1377,0,"Initial","PW vs FW",21.4190445448677
"499",12651,"Base_NNL_809","NNL",1,20,"right","male","5","54","PW vs Fin FW","tupiti.wav","pirogo.wav",2,3,0.820638616656125,"Unfamiliar",1,51,1239,0,"Final","PW vs FW",22.4190445448677
"500",12652,"Base_NNL_809","NNL",1,20,"right","male","5","42","PW vs Med FW","tudoro.wav","butupi.wav",1,3,-0.996502409603964,"Unfamiliar",1,52,1982,0,"Medial","PW vs FW",23.4190445448677
"501",12653,"Base_NNL_809","NNL",1,20,"right","male","1","52","PW vs Fin FW","butupi.wav","tupiku.wav",1,3,1.3494944975745,"Unfamiliar",1,53,1809,1,"Final","PW vs FW",24.4190445448677
"502",12654,"Base_NNL_809","NNL",1,20,"right","male","5","50","PW vs Fin FW","padoro.wav","ropado.wav",1,4,0.820638616656125,"Unfamiliar",5,54,1383,1,"Final","PW vs FW",25.4190445448677
"503",12655,"Base_NNL_809","NNL",1,20,"right","male","1","44","PW vs Med FW","ropado.wav","padati.wav",1,4,1.5060831821829,"Unfamiliar",5,55,1717,0,"Medial","PW vs FW",26.4190445448677
"504",12656,"Base_NNL_809","NNL",1,20,"right","male","1","2","Word vs PW","tupiro.wav","titupi.wav",1,3,NA,"Unfamiliar",1,56,1658,1,NA,"Word vs PW",27.4190445448677
"505",12657,"Base_NNL_812","NNL",2,31,"right","female","5","38","PW vs In FW","gopiro.wav","piropa.wav",2,3,-0.539772457704594,"Unfamiliar",1,1,2923,0,"Initial","PW vs FW",-27.5809554551323
"506",12658,"Base_NNL_812","NNL",2,31,"right","female","1","20","Word vs Med FW","padoti.wav","padati.wav",NA,4,1.5060831821829,"Unfamiliar",1,2,1797,1,"Medial","Word vs FW",-26.5809554551323
"507",12659,"Base_NNL_812","NNL",2,31,"right","female","5","15","Word vs In FW","gopiro.wav","tupiro.wav",NA,3,-0.539772457704594,"Unfamiliar",5,3,4335,1,"Initial","Word vs FW",-25.5809554551323
"508",12660,"Base_NNL_812","NNL",2,31,"right","female","1","56","PW vs Fin FW","dotigo.wav","padobu.wav",2,4,1.07824849447084,"Unfamiliar",1,4,1429,1,"Final","PW vs FW",-24.5809554551323
"509",12661,"Base_NNL_812","NNL",2,31,"right","female","1","1","Word vs PW","golabu.wav","rogola.wav",1,1,NA,"Unfamiliar",5,5,2090,0,NA,"Word vs PW",-23.5809554551323
"510",12662,"Base_NNL_812","NNL",2,31,"right","female","1","47","PW vs Med FW","labupa.wav","gopibu.wav",2,1,0.681696431891337,"Unfamiliar",1,6,1670,1,"Medial","PW vs FW",-22.5809554551323
"511",12663,"Base_NNL_812","NNL",2,31,"right","female","1","19","Word vs Med FW","tupiro.wav","tudoro.wav",NA,3,-0.996502409603964,"Unfamiliar",1,7,2746,1,"Medial","Word vs FW",-21.5809554551323
"512",12664,"Base_NNL_812","NNL",2,31,"right","female","1","55","PW vs Fin FW","dakutu.wav","bidaro.wav",2,2,1.3494944975745,"Unfamiliar",5,8,2491,0,"Final","PW vs FW",-20.5809554551323
"513",12665,"Base_NNL_812","NNL",2,31,"right","female","5","13","Word vs In FW","tulabu.wav","golabu.wav",NA,1,-0.539772457704594,"Unfamiliar",5,9,1179,1,"Initial","Word vs FW",-19.5809554551323
"514",12666,"Base_NNL_812","NNL",2,31,"right","female","1","43","PW vs Med FW","robida.wav","bipiku.wav",1,2,0.756281907372257,"Unfamiliar",1,10,1120,1,"Medial","PW vs FW",-18.5809554551323
"515",12667,"Base_NNL_812","NNL",2,31,"right","female","1","36","PW vs In FW","rogola.wav","bilabu.wav",1,1,-1.23434873110733,"Unfamiliar",1,11,1141,1,"Initial","PW vs FW",-17.5809554551323
"516",12668,"Base_NNL_812","NNL",2,31,"right","female","1","10","Word vs In FW","bidaku.wav","tudaku.wav",NA,2,-0.625245435400968,"Unfamiliar",1,12,2729,1,"Initial","Word vs FW",-16.5809554551323
"517",12669,"Base_NNL_812","NNL",2,31,"right","female","1","12","Word vs In FW","padoti.wav","tudoti.wav",NA,4,0.429540957672635,"Unfamiliar",1,13,1978,1,"Initial","Word vs FW",-15.5809554551323
"518",12670,"Base_NNL_812","NNL",2,31,"right","female","5","37","PW vs In FW","tulabu.wav","labubi.wav",2,1,-0.539772457704594,"Unfamiliar",1,14,1515,0,"Initial","PW vs FW",-14.5809554551323
"519",12671,"Base_NNL_812","NNL",2,31,"right","female","5","8","Word vs PW","piropa.wav","tupiro.wav",2,3,NA,"Unfamiliar",5,15,2364,1,NA,"Word vs PW",-13.5809554551323
"520",12672,"Base_NNL_812","NNL",2,31,"right","female","1","52","PW vs Fin FW","butupi.wav","tupiku.wav",1,3,1.3494944975745,"Unfamiliar",1,16,1731,1,"Final","PW vs FW",-12.5809554551323
"521",12673,"Base_NNL_812","NNL",2,31,"right","female","5","46","PW vs Med FW","papiti.wav","dotigo.wav",2,4,-0.996502409603964,"Unfamiliar",1,17,1391,0,"Medial","PW vs FW",-11.5809554551323
"522",12674,"Base_NNL_812","NNL",2,31,"right","female","5","4","Word vs PW","kupado.wav","padoti.wav",1,4,NA,"Unfamiliar",1,18,2744,0,NA,"Word vs PW",-10.5809554551323
"523",12675,"Base_NNL_812","NNL",2,31,"right","female","5","16","Word vs In FW","godoti.wav","padoti.wav",NA,4,0.266764696187699,"Unfamiliar",1,19,1873,0,"Initial","Word vs FW",-9.58095545513234
"524",12676,"Base_NNL_812","NNL",2,31,"right","female","1","27","Word vs Fin FW","tupiro.wav","tupiku.wav",NA,3,1.3494944975745,"Unfamiliar",1,20,1408,1,"Final","Word vs FW",-8.58095545513234
"525",12677,"Base_NNL_812","NNL",2,31,"right","female","1","9","Word vs In FW","golabu.wav","bilabu.wav",NA,1,-1.23434873110733,"Unfamiliar",1,21,1219,1,"Initial","Word vs FW",-7.58095545513234
"526",12678,"Base_NNL_812","NNL",2,31,"right","female","1","40","PW vs In FW","dotitu.wav","godoti.wav",2,4,0.266764696187699,"Unfamiliar",5,22,1169,0,"Initial","PW vs FW",-6.58095545513234
"527",12679,"Base_NNL_812","NNL",2,31,"right","female","5","33","PW vs In FW","tudaku.wav","bubida.wav",1,2,-0.625245435400968,"Unfamiliar",1,23,1214,0,"Initial","PW vs FW",-5.58095545513234
"528",12680,"Base_NNL_812","NNL",2,31,"right","female","5","41","PW vs Med FW","godabu.wav","kugola.wav",1,1,-1.31107860864913,"Unfamiliar",5,24,2461,1,"Medial","PW vs FW",-4.58095545513234
"529",12681,"Base_NNL_812","NNL",2,31,"right","female","5","29","Word vs Fin FW","golati.wav","golabu.wav",NA,1,1.07824849447084,"Unfamiliar",1,25,1606,0,"Final","Word vs FW",-3.58095545513234
"530",12682,"Base_NNL_812","NNL",2,31,"right","female","1","18","Word vs Med FW","bidaku.wav","bipiku.wav",NA,2,0.756281907372257,"Unfamiliar",1,26,1131,1,"Medial","Word vs FW",-2.58095545513234
"531",12683,"Base_NNL_812","NNL",2,31,"right","female","5","23","Word vs Med FW","tularo.wav","tupiro.wav",NA,3,0.681696431891337,"Unfamiliar",1,27,1830,0,"Medial","Word vs FW",-1.58095545513234
"532",12684,"Base_NNL_812","NNL",2,31,"right","female","5","35","PW vs In FW","tudoti.wav","kupado.wav",1,4,0.429540957672635,"Unfamiliar",1,28,1756,0,"Initial","PW vs FW",-0.580955455132344
