"","X","SubjectID","ExperimentName","Session","Age","Handedness","Sex","CRESP","List2","PairCode","Sound1","Sound2","PWType","WordType","zMFCC","Condition","RESP","Trial","RT","ACC","SyllPos","TrialType","c_Trial"
"1",9297,"Base_SNL_1101","SNL",1,25,"left","female","1","5","Word vs PW","golabu.wav","rogola.wav",1,1,NA,"Assimilable",5,4,1734,0,NA,"Word vs PW",-24.5809554551323
"2",9298,"Base_SNL_1101","SNL",1,25,"left","female","5","2","Word vs PW","dakugo.wav","bidaku.wav",2,2,NA,"Assimilable",5,8,1553,1,NA,"Word vs PW",-20.5809554551323
"3",9299,"Base_SNL_1101","SNL",1,25,"left","female","1","8","Word vs PW","padoti.wav","kupado.wav",1,4,NA,"Assimilable",1,11,1357,1,NA,"Word vs PW",-17.5809554551323
"4",9300,"Base_SNL_1101","SNL",1,25,"left","female","5","1","Word vs PW","labubi.wav","golabu.wav",2,1,NA,"Assimilable",5,24,1506,1,NA,"Word vs PW",-4.58095545513234
"5",9301,"Base_SNL_1101","SNL",1,25,"left","female","5","4","Word vs PW","dotitu.wav","padoti.wav",2,4,NA,"Assimilable",5,25,1920,1,NA,"Word vs PW",-3.58095545513234
"6",9302,"Base_SNL_1101","SNL",1,25,"left","female","1","6","Word vs PW","bidaku.wav","bubida.wav",1,2,NA,"Assimilable",1,37,1497,1,NA,"Word vs PW",8.41904454486766
"7",9303,"Base_SNL_1101","SNL",1,25,"left","female","5","3","Word vs PW","piropa.wav","tupiro.wav",2,3,NA,"Assimilable",5,51,1343,1,NA,"Word vs PW",22.4190445448677
"8",9304,"Base_SNL_1101","SNL",1,25,"left","female","1","7","Word vs PW","tupiro.wav","titupi.wav",1,3,NA,"Assimilable",1,52,1225,1,NA,"Word vs PW",23.4190445448677
"9",9305,"Base_SNL_1102","SNL",2,22,"right","female","5","2","Word vs PW","dakugo.wav","bidaku.wav",2,2,NA,"Assimilable",1,4,2491,0,NA,"Word vs PW",-24.5809554551323
"10",9306,"Base_SNL_1102","SNL",2,22,"right","female","1","7","Word vs PW","tupiro.wav","titupi.wav",1,3,NA,"Assimilable",1,8,1021,1,NA,"Word vs PW",-20.5809554551323
"11",9307,"Base_SNL_1102","SNL",2,22,"right","female","5","4","Word vs PW","dotitu.wav","padoti.wav",2,4,NA,"Assimilable",1,9,1093,0,NA,"Word vs PW",-19.5809554551323
"12",9308,"Base_SNL_1102","SNL",2,22,"right","female","5","3","Word vs PW","piropa.wav","tupiro.wav",2,3,NA,"Assimilable",5,18,1318,1,NA,"Word vs PW",-10.5809554551323
"13",9309,"Base_SNL_1102","SNL",2,22,"right","female","1","8","Word vs PW","padoti.wav","kupado.wav",1,4,NA,"Assimilable",5,26,927,0,NA,"Word vs PW",-2.58095545513234
"14",9310,"Base_SNL_1102","SNL",2,22,"right","female","1","6","Word vs PW","bidaku.wav","bubida.wav",1,2,NA,"Assimilable",1,29,1164,1,NA,"Word vs PW",0.419044544867656
"15",9311,"Base_SNL_1102","SNL",2,22,"right","female","5","1","Word vs PW","labubi.wav","golabu.wav",2,1,NA,"Assimilable",1,41,3779,0,NA,"Word vs PW",12.4190445448677
"16",9312,"Base_SNL_1102","SNL",2,22,"right","female","1","5","Word vs PW","golabu.wav","rogola.wav",1,1,NA,"Assimilable",1,52,1848,1,NA,"Word vs PW",23.4190445448677
"17",9313,"Base_SNL_1201","SNL",1,18,"right","female","5","2","Word vs PW","dakugo.wav","bidaku.wav",2,2,NA,"Assimilable",5,3,2068,1,NA,"Word vs PW",-25.5809554551323
"18",9314,"Base_SNL_1201","SNL",1,18,"right","female","1","5","Word vs PW","golabu.wav","rogola.wav",1,1,NA,"Assimilable",5,11,2291,0,NA,"Word vs PW",-17.5809554551323
"19",9315,"Base_SNL_1201","SNL",1,18,"right","female","5","3","Word vs PW","piropa.wav","tupiro.wav",2,3,NA,"Assimilable",1,22,1822,0,NA,"Word vs PW",-6.58095545513234
"20",9316,"Base_SNL_1201","SNL",1,18,"right","female","1","7","Word vs PW","tupiro.wav","titupi.wav",1,3,NA,"Assimilable",5,23,2301,0,NA,"Word vs PW",-5.58095545513234
"21",9317,"Base_SNL_1201","SNL",1,18,"right","female","1","8","Word vs PW","padoti.wav","kupado.wav",1,4,NA,"Assimilable",1,31,1781,1,NA,"Word vs PW",2.41904454486766
"22",9318,"Base_SNL_1201","SNL",1,18,"right","female","5","4","Word vs PW","dotitu.wav","padoti.wav",2,4,NA,"Assimilable",1,34,4222,0,NA,"Word vs PW",5.41904454486766
"23",9319,"Base_SNL_1201","SNL",1,18,"right","female","1","6","Word vs PW","bidaku.wav","bubida.wav",1,2,NA,"Assimilable",1,35,2453,1,NA,"Word vs PW",6.41904454486766
"24",9320,"Base_SNL_1201","SNL",1,18,"right","female","5","1","Word vs PW","labubi.wav","golabu.wav",2,1,NA,"Assimilable",1,40,1554,0,NA,"Word vs PW",11.4190445448677
"25",9321,"Base_SNL_1202","SNL",2,22,"right","male","1","5","Word vs PW","golabu.wav","rogola.wav",1,1,NA,"Assimilable",1,21,1399,1,NA,"Word vs PW",-7.58095545513234
"26",9322,"Base_SNL_1202","SNL",2,22,"right","male","5","2","Word vs PW","dakugo.wav","bidaku.wav",2,2,NA,"Assimilable",5,22,1546,1,NA,"Word vs PW",-6.58095545513234
"27",9323,"Base_SNL_1202","SNL",2,22,"right","male","5","3","Word vs PW","piropa.wav","tupiro.wav",2,3,NA,"Assimilable",1,24,2545,0,NA,"Word vs PW",-4.58095545513234
"28",9324,"Base_SNL_1202","SNL",2,22,"right","male","1","6","Word vs PW","bidaku.wav","bubida.wav",1,2,NA,"Assimilable",1,41,897,1,NA,"Word vs PW",12.4190445448677
"29",9325,"Base_SNL_1202","SNL",2,22,"right","male","1","7","Word vs PW","tupiro.wav","titupi.wav",1,3,NA,"Assimilable",5,45,1029,0,NA,"Word vs PW",16.4190445448677
"30",9326,"Base_SNL_1202","SNL",2,22,"right","male","1","8","Word vs PW","padoti.wav","kupado.wav",1,4,NA,"Assimilable",5,46,2537,0,NA,"Word vs PW",17.4190445448677
"31",9327,"Base_SNL_1202","SNL",2,22,"right","male","5","1","Word vs PW","labubi.wav","golabu.wav",2,1,NA,"Assimilable",5,52,1168,1,NA,"Word vs PW",23.4190445448677
"32",9328,"Base_SNL_1202","SNL",2,22,"right","male","5","4","Word vs PW","dotitu.wav","padoti.wav",2,4,NA,"Assimilable",1,56,1289,0,NA,"Word vs PW",27.4190445448677
"33",9329,"Base_SNL_1203","SNL",1,20,"right","female","1","7","Word vs PW","tupiro.wav","titupi.wav",1,3,NA,"Assimilable",1,5,1010,1,NA,"Word vs PW",-23.5809554551323
"34",9330,"Base_SNL_1203","SNL",1,20,"right","female","5","3","Word vs PW","piropa.wav","tupiro.wav",2,3,NA,"Assimilable",5,7,982,1,NA,"Word vs PW",-21.5809554551323
"35",9331,"Base_SNL_1203","SNL",1,20,"right","female","5","2","Word vs PW","dakugo.wav","bidaku.wav",2,2,NA,"Assimilable",5,19,1019,1,NA,"Word vs PW",-9.58095545513234
"36",9332,"Base_SNL_1203","SNL",1,20,"right","female","1","6","Word vs PW","bidaku.wav","bubida.wav",1,2,NA,"Assimilable",1,22,1003,1,NA,"Word vs PW",-6.58095545513234
"37",9333,"Base_SNL_1203","SNL",1,20,"right","female","1","5","Word vs PW","golabu.wav","rogola.wav",1,1,NA,"Assimilable",1,34,936,1,NA,"Word vs PW",5.41904454486766
"38",9334,"Base_SNL_1203","SNL",1,20,"right","female","5","4","Word vs PW","dotitu.wav","padoti.wav",2,4,NA,"Assimilable",5,39,1410,1,NA,"Word vs PW",10.4190445448677
"39",9335,"Base_SNL_1203","SNL",1,20,"right","female","5","1","Word vs PW","labubi.wav","golabu.wav",2,1,NA,"Assimilable",1,46,1256,0,NA,"Word vs PW",17.4190445448677
"40",9336,"Base_SNL_1203","SNL",1,20,"right","female","1","8","Word vs PW","padoti.wav","kupado.wav",1,4,NA,"Assimilable",5,47,1273,0,NA,"Word vs PW",18.4190445448677
"41",9337,"Base_SNL_1204","SNL",2,21,"right","female","1","7","Word vs PW","tupiro.wav","titupi.wav",1,3,NA,"Assimilable",1,4,1165,1,NA,"Word vs PW",-24.5809554551323
"42",9338,"Base_SNL_1204","SNL",2,21,"right","female","5","4","Word vs PW","dotitu.wav","padoti.wav",2,4,NA,"Assimilable",5,13,1062,1,NA,"Word vs PW",-15.5809554551323
"43",9339,"Base_SNL_1204","SNL",2,21,"right","female","1","8","Word vs PW","padoti.wav","kupado.wav",1,4,NA,"Assimilable",1,17,1383,1,NA,"Word vs PW",-11.5809554551323
"44",9340,"Base_SNL_1204","SNL",2,21,"right","female","1","6","Word vs PW","bidaku.wav","bubida.wav",1,2,NA,"Assimilable",5,31,1685,0,NA,"Word vs PW",2.41904454486766
"45",9341,"Base_SNL_1204","SNL",2,21,"right","female","5","3","Word vs PW","piropa.wav","tupiro.wav",2,3,NA,"Assimilable",5,39,1112,1,NA,"Word vs PW",10.4190445448677
"46",9342,"Base_SNL_1204","SNL",2,21,"right","female","5","1","Word vs PW","labubi.wav","golabu.wav",2,1,NA,"Assimilable",5,45,994,1,NA,"Word vs PW",16.4190445448677
"47",9343,"Base_SNL_1204","SNL",2,21,"right","female","1","5","Word vs PW","golabu.wav","rogola.wav",1,1,NA,"Assimilable",1,46,895,1,NA,"Word vs PW",17.4190445448677
"48",9344,"Base_SNL_1204","SNL",2,21,"right","female","5","2","Word vs PW","dakugo.wav","bidaku.wav",2,2,NA,"Assimilable",5,51,1038,1,NA,"Word vs PW",22.4190445448677
"49",9345,"Base_SNL_1205","SNL",1,18,"right","female","1","6","Word vs PW","bidaku.wav","bubida.wav",1,2,NA,"Assimilable",1,1,2612,1,NA,"Word vs PW",-27.5809554551323
"50",9346,"Base_SNL_1205","SNL",1,18,"right","female","5","2","Word vs PW","dakugo.wav","bidaku.wav",2,2,NA,"Assimilable",1,7,1883,0,NA,"Word vs PW",-21.5809554551323
"51",9347,"Base_SNL_1205","SNL",1,18,"right","female","1","5","Word vs PW","golabu.wav","rogola.wav",1,1,NA,"Assimilable",1,15,1329,1,NA,"Word vs PW",-13.5809554551323
"52",9348,"Base_SNL_1205","SNL",1,18,"right","female","5","3","Word vs PW","piropa.wav","tupiro.wav",2,3,NA,"Assimilable",1,16,1427,0,NA,"Word vs PW",-12.5809554551323
"53",9349,"Base_SNL_1205","SNL",1,18,"right","female","1","7","Word vs PW","tupiro.wav","titupi.wav",1,3,NA,"Assimilable",1,23,1439,1,NA,"Word vs PW",-5.58095545513234
"54",9350,"Base_SNL_1205","SNL",1,18,"right","female","1","8","Word vs PW","padoti.wav","kupado.wav",1,4,NA,"Assimilable",5,24,1573,0,NA,"Word vs PW",-4.58095545513234
"55",9351,"Base_SNL_1205","SNL",1,18,"right","female","5","1","Word vs PW","labubi.wav","golabu.wav",2,1,NA,"Assimilable",1,37,1464,0,NA,"Word vs PW",8.41904454486766
"56",9352,"Base_SNL_1205","SNL",1,18,"right","female","5","4","Word vs PW","dotitu.wav","padoti.wav",2,4,NA,"Assimilable",5,50,1298,1,NA,"Word vs PW",21.4190445448677
"57",9353,"Base_SNL_1206","SNL",2,24,"right","female","5","3","Word vs PW","piropa.wav","tupiro.wav",2,3,NA,"Assimilable",1,4,1268,0,NA,"Word vs PW",-24.5809554551323
"58",9354,"Base_SNL_1206","SNL",2,24,"right","female","5","1","Word vs PW","labubi.wav","golabu.wav",2,1,NA,"Assimilable",5,9,2628,1,NA,"Word vs PW",-19.5809554551323
"59",9355,"Base_SNL_1206","SNL",2,24,"right","female","5","2","Word vs PW","dakugo.wav","bidaku.wav",2,2,NA,"Assimilable",5,12,2827,1,NA,"Word vs PW",-16.5809554551323
"60",9356,"Base_SNL_1206","SNL",2,24,"right","female","1","7","Word vs PW","tupiro.wav","titupi.wav",1,3,NA,"Assimilable",1,19,1440,1,NA,"Word vs PW",-9.58095545513234
"61",9357,"Base_SNL_1206","SNL",2,24,"right","female","5","4","Word vs PW","dotitu.wav","padoti.wav",2,4,NA,"Assimilable",5,43,3066,1,NA,"Word vs PW",14.4190445448677
"62",9358,"Base_SNL_1206","SNL",2,24,"right","female","1","5","Word vs PW","golabu.wav","rogola.wav",1,1,NA,"Assimilable",1,44,1603,1,NA,"Word vs PW",15.4190445448677
"63",9359,"Base_SNL_1206","SNL",2,24,"right","female","1","6","Word vs PW","bidaku.wav","bubida.wav",1,2,NA,"Assimilable",5,46,2713,0,NA,"Word vs PW",17.4190445448677
"64",9360,"Base_SNL_1206","SNL",2,24,"right","female","1","8","Word vs PW","padoti.wav","kupado.wav",1,4,NA,"Assimilable",1,54,2647,1,NA,"Word vs PW",25.4190445448677
"65",9361,"Base_SNL_1207","SNL",1,21,"right","female","5","2","Word vs PW","dakugo.wav","bidaku.wav",2,2,NA,"Assimilable",5,2,1176,1,NA,"Word vs PW",-26.5809554551323
"66",9362,"Base_SNL_1207","SNL",1,21,"right","female","1","5","Word vs PW","golabu.wav","rogola.wav",1,1,NA,"Assimilable",5,14,1534,0,NA,"Word vs PW",-14.5809554551323
"67",9363,"Base_SNL_1207","SNL",1,21,"right","female","1","8","Word vs PW","padoti.wav","kupado.wav",1,4,NA,"Assimilable",1,15,1100,1,NA,"Word vs PW",-13.5809554551323
"68",9364,"Base_SNL_1207","SNL",1,21,"right","female","5","1","Word vs PW","labubi.wav","golabu.wav",2,1,NA,"Assimilable",1,23,1336,0,NA,"Word vs PW",-5.58095545513234
"69",9365,"Base_SNL_1207","SNL",1,21,"right","female","5","3","Word vs PW","piropa.wav","tupiro.wav",2,3,NA,"Assimilable",1,24,2336,0,NA,"Word vs PW",-4.58095545513234
"70",9366,"Base_SNL_1207","SNL",1,21,"right","female","5","4","Word vs PW","dotitu.wav","padoti.wav",2,4,NA,"Assimilable",5,38,2080,1,NA,"Word vs PW",9.41904454486766
"71",9367,"Base_SNL_1207","SNL",1,21,"right","female","1","7","Word vs PW","tupiro.wav","titupi.wav",1,3,NA,"Assimilable",1,49,2867,1,NA,"Word vs PW",20.4190445448677
"72",9368,"Base_SNL_1207","SNL",1,21,"right","female","1","6","Word vs PW","bidaku.wav","bubida.wav",1,2,NA,"Assimilable",1,51,1859,1,NA,"Word vs PW",22.4190445448677
"73",9370,"Base_SNL_1208","SNL",2,19,"right","female","1","5","Word vs PW","golabu.wav","rogola.wav",1,1,NA,"Assimilable",1,19,1072,1,NA,"Word vs PW",-9.58095545513234
"74",9371,"Base_SNL_1208","SNL",2,19,"right","female","1","7","Word vs PW","tupiro.wav","titupi.wav",1,3,NA,"Assimilable",1,26,1322,1,NA,"Word vs PW",-2.58095545513234
"75",9372,"Base_SNL_1208","SNL",2,19,"right","female","1","6","Word vs PW","bidaku.wav","bubida.wav",1,2,NA,"Assimilable",1,36,1098,1,NA,"Word vs PW",7.41904454486766
"76",9373,"Base_SNL_1208","SNL",2,19,"right","female","5","1","Word vs PW","labubi.wav","golabu.wav",2,1,NA,"Assimilable",5,39,968,1,NA,"Word vs PW",10.4190445448677
"77",9374,"Base_SNL_1208","SNL",2,19,"right","female","5","4","Word vs PW","dotitu.wav","padoti.wav",2,4,NA,"Assimilable",5,44,1802,1,NA,"Word vs PW",15.4190445448677
"78",9375,"Base_SNL_1208","SNL",2,19,"right","female","1","8","Word vs PW","padoti.wav","kupado.wav",1,4,NA,"Assimilable",5,47,1296,0,NA,"Word vs PW",18.4190445448677
"79",9376,"Base_SNL_1208","SNL",2,19,"right","female","5","3","Word vs PW","piropa.wav","tupiro.wav",2,3,NA,"Assimilable",1,53,2284,0,NA,"Word vs PW",24.4190445448677
"80",9377,"Base_SNL_1209","SNL",1,29,"left","female","1","5","Word vs PW","golabu.wav","rogola.wav",1,1,NA,"Assimilable",1,9,1425,1,NA,"Word vs PW",-19.5809554551323
"81",9378,"Base_SNL_1209","SNL",1,29,"left","female","1","6","Word vs PW","bidaku.wav","bubida.wav",1,2,NA,"Assimilable",1,11,1683,1,NA,"Word vs PW",-17.5809554551323
"82",9379,"Base_SNL_1209","SNL",1,29,"left","female","5","4","Word vs PW","dotitu.wav","padoti.wav",2,4,NA,"Assimilable",5,22,1531,1,NA,"Word vs PW",-6.58095545513234
"83",9380,"Base_SNL_1209","SNL",1,29,"left","female","1","8","Word vs PW","padoti.wav","kupado.wav",1,4,NA,"Assimilable",1,34,1905,1,NA,"Word vs PW",5.41904454486766
"84",9381,"Base_SNL_1209","SNL",1,29,"left","female","5","3","Word vs PW","piropa.wav","tupiro.wav",2,3,NA,"Assimilable",1,39,1989,0,NA,"Word vs PW",10.4190445448677
"85",9382,"Base_SNL_1209","SNL",1,29,"left","female","5","1","Word vs PW","labubi.wav","golabu.wav",2,1,NA,"Assimilable",5,40,2842,1,NA,"Word vs PW",11.4190445448677
"86",9383,"Base_SNL_1209","SNL",1,29,"left","female","1","7","Word vs PW","tupiro.wav","titupi.wav",1,3,NA,"Assimilable",1,46,1725,1,NA,"Word vs PW",17.4190445448677
"87",9384,"Base_SNL_1209","SNL",1,29,"left","female","5","2","Word vs PW","dakugo.wav","bidaku.wav",2,2,NA,"Assimilable",1,51,1195,0,NA,"Word vs PW",22.4190445448677
"88",9385,"Base_SNL_1210","SNL",2,32,"right","female","1","7","Word vs PW","tupiro.wav","titupi.wav",1,3,NA,"Assimilable",1,22,1822,1,NA,"Word vs PW",-6.58095545513234
"89",9386,"Base_SNL_1210","SNL",2,32,"right","female","1","8","Word vs PW","padoti.wav","kupado.wav",1,4,NA,"Assimilable",1,28,2209,1,NA,"Word vs PW",-0.580955455132344
"90",9387,"Base_SNL_1210","SNL",2,32,"right","female","1","5","Word vs PW","golabu.wav","rogola.wav",1,1,NA,"Assimilable",1,29,2122,1,NA,"Word vs PW",0.419044544867656
"91",9388,"Base_SNL_1210","SNL",2,32,"right","female","5","1","Word vs PW","labubi.wav","golabu.wav",2,1,NA,"Assimilable",5,31,3235,1,NA,"Word vs PW",2.41904454486766
"92",9389,"Base_SNL_1210","SNL",2,32,"right","female","5","4","Word vs PW","dotitu.wav","padoti.wav",2,4,NA,"Assimilable",5,34,1928,1,NA,"Word vs PW",5.41904454486766
"93",9390,"Base_SNL_1210","SNL",2,32,"right","female","5","2","Word vs PW","dakugo.wav","bidaku.wav",2,2,NA,"Assimilable",5,35,1465,1,NA,"Word vs PW",6.41904454486766
"94",9391,"Base_SNL_1210","SNL",2,32,"right","female","1","6","Word vs PW","bidaku.wav","bubida.wav",1,2,NA,"Assimilable",1,43,2716,1,NA,"Word vs PW",14.4190445448677
"95",9392,"Base_SNL_1210","SNL",2,32,"right","female","5","3","Word vs PW","piropa.wav","tupiro.wav",2,3,NA,"Assimilable",1,56,2306,0,NA,"Word vs PW",27.4190445448677
"96",9393,"Base_SNL_1212","SNL",2,18,"right","female","5","4","Word vs PW","dotitu.wav","padoti.wav",2,4,NA,"Assimilable",5,2,1158,1,NA,"Word vs PW",-26.5809554551323
"97",9394,"Base_SNL_1212","SNL",2,18,"right","female","1","7","Word vs PW","tupiro.wav","titupi.wav",1,3,NA,"Assimilable",1,12,1522,1,NA,"Word vs PW",-16.5809554551323
"98",9395,"Base_SNL_1212","SNL",2,18,"right","female","1","8","Word vs PW","padoti.wav","kupado.wav",1,4,NA,"Assimilable",1,16,1088,1,NA,"Word vs PW",-12.5809554551323
"99",9396,"Base_SNL_1212","SNL",2,18,"right","female","5","3","Word vs PW","piropa.wav","tupiro.wav",2,3,NA,"Assimilable",5,19,1112,1,NA,"Word vs PW",-9.58095545513234
"100",9397,"Base_SNL_1212","SNL",2,18,"right","female","5","1","Word vs PW","labubi.wav","golabu.wav",2,1,NA,"Assimilable",5,22,1483,1,NA,"Word vs PW",-6.58095545513234
"101",9398,"Base_SNL_1212","SNL",2,18,"right","female","5","2","Word vs PW","dakugo.wav","bidaku.wav",2,2,NA,"Assimilable",5,28,1324,1,NA,"Word vs PW",-0.580955455132344
"102",9399,"Base_SNL_1212","SNL",2,18,"right","female","1","5","Word vs PW","golabu.wav","rogola.wav",1,1,NA,"Assimilable",5,40,1394,0,NA,"Word vs PW",11.4190445448677
"103",9400,"Base_SNL_1212","SNL",2,18,"right","female","1","6","Word vs PW","bidaku.wav","bubida.wav",1,2,NA,"Assimilable",1,42,1585,1,NA,"Word vs PW",13.4190445448677
"104",9401,"Base_SNL_1213","SNL",1,18,"right","male","1","7","Word vs PW","tupiro.wav","titupi.wav",1,3,NA,"Assimilable",1,2,1933,1,NA,"Word vs PW",-26.5809554551323
"105",9402,"Base_SNL_1213","SNL",1,18,"right","male","5","1","Word vs PW","labubi.wav","golabu.wav",2,1,NA,"Assimilable",1,17,1309,0,NA,"Word vs PW",-11.5809554551323
"106",9403,"Base_SNL_1213","SNL",1,18,"right","male","1","5","Word vs PW","golabu.wav","rogola.wav",1,1,NA,"Assimilable",1,20,1864,1,NA,"Word vs PW",-8.58095545513234
"107",9404,"Base_SNL_1213","SNL",1,18,"right","male","1","6","Word vs PW","bidaku.wav","bubida.wav",1,2,NA,"Assimilable",1,29,1425,1,NA,"Word vs PW",0.419044544867656
"108",9405,"Base_SNL_1213","SNL",1,18,"right","male","5","3","Word vs PW","piropa.wav","tupiro.wav",2,3,NA,"Assimilable",1,32,2293,0,NA,"Word vs PW",3.41904454486766
"109",9406,"Base_SNL_1213","SNL",1,18,"right","male","5","2","Word vs PW","dakugo.wav","bidaku.wav",2,2,NA,"Assimilable",1,42,1292,0,NA,"Word vs PW",13.4190445448677
"110",9407,"Base_SNL_1213","SNL",1,18,"right","male","5","4","Word vs PW","dotitu.wav","padoti.wav",2,4,NA,"Assimilable",1,47,1418,0,NA,"Word vs PW",18.4190445448677
"111",9408,"Base_SNL_1213","SNL",1,18,"right","male","1","8","Word vs PW","padoti.wav","kupado.wav",1,4,NA,"Assimilable",1,55,1607,1,NA,"Word vs PW",26.4190445448677
"112",9409,"Base_SNL_1214","SNL",2,18,"left","female","1","8","Word vs PW","padoti.wav","kupado.wav",1,4,NA,"Assimilable",1,12,1303,1,NA,"Word vs PW",-16.5809554551323
"113",9410,"Base_SNL_1214","SNL",2,18,"left","female","5","2","Word vs PW","dakugo.wav","bidaku.wav",2,2,NA,"Assimilable",5,16,1016,1,NA,"Word vs PW",-12.5809554551323
"114",9411,"Base_SNL_1214","SNL",2,18,"left","female","5","4","Word vs PW","dotitu.wav","padoti.wav",2,4,NA,"Assimilable",1,18,1526,0,NA,"Word vs PW",-10.5809554551323
"115",9412,"Base_SNL_1214","SNL",2,18,"left","female","1","6","Word vs PW","bidaku.wav","bubida.wav",1,2,NA,"Assimilable",1,23,1512,1,NA,"Word vs PW",-5.58095545513234
"116",9413,"Base_SNL_1214","SNL",2,18,"left","female","5","1","Word vs PW","labubi.wav","golabu.wav",2,1,NA,"Assimilable",1,24,2111,0,NA,"Word vs PW",-4.58095545513234
"117",9414,"Base_SNL_1214","SNL",2,18,"left","female","5","3","Word vs PW","piropa.wav","tupiro.wav",2,3,NA,"Assimilable",5,31,2007,1,NA,"Word vs PW",2.41904454486766
"118",9415,"Base_SNL_1214","SNL",2,18,"left","female","1","5","Word vs PW","golabu.wav","rogola.wav",1,1,NA,"Assimilable",5,34,2451,0,NA,"Word vs PW",5.41904454486766
"119",9416,"Base_SNL_1214","SNL",2,18,"left","female","1","7","Word vs PW","tupiro.wav","titupi.wav",1,3,NA,"Assimilable",5,40,1798,0,NA,"Word vs PW",11.4190445448677
"120",9417,"Base_SNL_1215","SNL",1,30,"right","male","5","2","Word vs PW","dakugo.wav","bidaku.wav",2,2,NA,"Assimilable",1,4,1637,0,NA,"Word vs PW",-24.5809554551323
"121",9418,"Base_SNL_1215","SNL",1,30,"right","male","1","5","Word vs PW","golabu.wav","rogola.wav",1,1,NA,"Assimilable",1,9,1531,1,NA,"Word vs PW",-19.5809554551323
"122",9419,"Base_SNL_1215","SNL",1,30,"right","male","5","4","Word vs PW","dotitu.wav","padoti.wav",2,4,NA,"Assimilable",5,17,1625,1,NA,"Word vs PW",-11.5809554551323
"123",9420,"Base_SNL_1215","SNL",1,30,"right","male","5","1","Word vs PW","labubi.wav","golabu.wav",2,1,NA,"Assimilable",5,22,2304,1,NA,"Word vs PW",-6.58095545513234
"124",9421,"Base_SNL_1215","SNL",1,30,"right","male","1","7","Word vs PW","tupiro.wav","titupi.wav",1,3,NA,"Assimilable",5,35,1851,0,NA,"Word vs PW",6.41904454486766
"125",9422,"Base_SNL_1215","SNL",1,30,"right","male","1","8","Word vs PW","padoti.wav","kupado.wav",1,4,NA,"Assimilable",5,36,1698,0,NA,"Word vs PW",7.41904454486766
"126",9423,"Base_SNL_1215","SNL",1,30,"right","male","1","6","Word vs PW","bidaku.wav","bubida.wav",1,2,NA,"Assimilable",1,41,2071,1,NA,"Word vs PW",12.4190445448677
"127",9424,"Base_SNL_1215","SNL",1,30,"right","male","5","3","Word vs PW","piropa.wav","tupiro.wav",2,3,NA,"Assimilable",1,49,1465,0,NA,"Word vs PW",20.4190445448677
"128",9425,"Base_SNL_1216","SNL",2,18,"right","female","5","3","Word vs PW","piropa.wav","tupiro.wav",2,3,NA,"Assimilable",5,12,1409,1,NA,"Word vs PW",-16.5809554551323
"129",9426,"Base_SNL_1216","SNL",2,18,"right","female","1","8","Word vs PW","padoti.wav","kupado.wav",1,4,NA,"Assimilable",1,15,2465,1,NA,"Word vs PW",-13.5809554551323
"130",9427,"Base_SNL_1216","SNL",2,18,"right","female","1","6","Word vs PW","bidaku.wav","bubida.wav",1,2,NA,"Assimilable",5,27,2468,0,NA,"Word vs PW",-1.58095545513234
"131",9428,"Base_SNL_1216","SNL",2,18,"right","female","1","7","Word vs PW","tupiro.wav","titupi.wav",1,3,NA,"Assimilable",1,29,1087,1,NA,"Word vs PW",0.419044544867656
"132",9429,"Base_SNL_1216","SNL",2,18,"right","female","1","5","Word vs PW","golabu.wav","rogola.wav",1,1,NA,"Assimilable",5,36,1208,0,NA,"Word vs PW",7.41904454486766
"133",9430,"Base_SNL_1216","SNL",2,18,"right","female","5","2","Word vs PW","dakugo.wav","bidaku.wav",2,2,NA,"Assimilable",1,37,1572,0,NA,"Word vs PW",8.41904454486766
"134",9431,"Base_SNL_1216","SNL",2,18,"right","female","5","1","Word vs PW","labubi.wav","golabu.wav",2,1,NA,"Assimilable",5,44,1197,1,NA,"Word vs PW",15.4190445448677
"135",9432,"Base_SNL_1216","SNL",2,18,"right","female","5","4","Word vs PW","dotitu.wav","padoti.wav",2,4,NA,"Assimilable",5,54,1465,1,NA,"Word vs PW",25.4190445448677
"136",9433,"Base_SNL_1217","SNL",1,18,"right","female","5","4","Word vs PW","dotitu.wav","padoti.wav",2,4,NA,"Assimilable",5,11,1617,1,NA,"Word vs PW",-17.5809554551323
"137",9434,"Base_SNL_1217","SNL",1,18,"right","female","5","2","Word vs PW","dakugo.wav","bidaku.wav",2,2,NA,"Assimilable",5,15,948,1,NA,"Word vs PW",-13.5809554551323
"138",9435,"Base_SNL_1217","SNL",1,18,"right","female","1","5","Word vs PW","golabu.wav","rogola.wav",1,1,NA,"Assimilable",5,16,1137,0,NA,"Word vs PW",-12.5809554551323
"139",9436,"Base_SNL_1217","SNL",1,18,"right","female","5","1","Word vs PW","labubi.wav","golabu.wav",2,1,NA,"Assimilable",5,25,917,1,NA,"Word vs PW",-3.58095545513234
"140",9437,"Base_SNL_1217","SNL",1,18,"right","female","1","7","Word vs PW","tupiro.wav","titupi.wav",1,3,NA,"Assimilable",5,27,1637,0,NA,"Word vs PW",-1.58095545513234
"141",9438,"Base_SNL_1217","SNL",1,18,"right","female","5","3","Word vs PW","piropa.wav","tupiro.wav",2,3,NA,"Assimilable",5,32,918,1,NA,"Word vs PW",3.41904454486766
"142",9439,"Base_SNL_1217","SNL",1,18,"right","female","1","6","Word vs PW","bidaku.wav","bubida.wav",1,2,NA,"Assimilable",1,51,982,1,NA,"Word vs PW",22.4190445448677
"143",9440,"Base_SNL_1217","SNL",1,18,"right","female","1","8","Word vs PW","padoti.wav","kupado.wav",1,4,NA,"Assimilable",5,53,1268,0,NA,"Word vs PW",24.4190445448677
"144",9441,"Base_SNL_1218","SNL",2,19,"right","female","1","7","Word vs PW","tupiro.wav","titupi.wav",1,3,NA,"Assimilable",1,2,2417,1,NA,"Word vs PW",-26.5809554551323
"145",9442,"Base_SNL_1218","SNL",2,19,"right","female","5","2","Word vs PW","dakugo.wav","bidaku.wav",2,2,NA,"Assimilable",1,10,1348,0,NA,"Word vs PW",-18.5809554551323
"146",9443,"Base_SNL_1218","SNL",2,19,"right","female","5","1","Word vs PW","labubi.wav","golabu.wav",2,1,NA,"Assimilable",5,26,1273,1,NA,"Word vs PW",-2.58095545513234
"147",9444,"Base_SNL_1218","SNL",2,19,"right","female","1","6","Word vs PW","bidaku.wav","bubida.wav",1,2,NA,"Assimilable",1,27,1100,1,NA,"Word vs PW",-1.58095545513234
"148",9445,"Base_SNL_1218","SNL",2,19,"right","female","1","5","Word vs PW","golabu.wav","rogola.wav",1,1,NA,"Assimilable",5,28,1545,0,NA,"Word vs PW",-0.580955455132344
"149",9446,"Base_SNL_1218","SNL",2,19,"right","female","5","3","Word vs PW","piropa.wav","tupiro.wav",2,3,NA,"Assimilable",5,43,1098,1,NA,"Word vs PW",14.4190445448677
"150",9447,"Base_SNL_1218","SNL",2,19,"right","female","1","8","Word vs PW","padoti.wav","kupado.wav",1,4,NA,"Assimilable",5,48,1360,0,NA,"Word vs PW",19.4190445448677
"151",9448,"Base_SNL_1218","SNL",2,19,"right","female","5","4","Word vs PW","dotitu.wav","padoti.wav",2,4,NA,"Assimilable",5,52,1161,1,NA,"Word vs PW",23.4190445448677
"152",9449,"Base_SNL_1219","SNL",1,20,"right","female","1","6","Word vs PW","bidaku.wav","bubida.wav",1,2,NA,"Assimilable",1,5,1456,1,NA,"Word vs PW",-23.5809554551323
"153",9450,"Base_SNL_1219","SNL",1,20,"right","female","5","2","Word vs PW","dakugo.wav","bidaku.wav",2,2,NA,"Assimilable",5,8,1540,1,NA,"Word vs PW",-20.5809554551323
"154",9451,"Base_SNL_1219","SNL",1,20,"right","female","5","1","Word vs PW","labubi.wav","golabu.wav",2,1,NA,"Assimilable",1,9,2109,0,NA,"Word vs PW",-19.5809554551323
"155",9452,"Base_SNL_1219","SNL",1,20,"right","female","5","4","Word vs PW","dotitu.wav","padoti.wav",2,4,NA,"Assimilable",1,17,1292,0,NA,"Word vs PW",-11.5809554551323
"156",9453,"Base_SNL_1219","SNL",1,20,"right","female","1","5","Word vs PW","golabu.wav","rogola.wav",1,1,NA,"Assimilable",1,28,839,1,NA,"Word vs PW",-0.580955455132344
"157",9454,"Base_SNL_1219","SNL",1,20,"right","female","5","3","Word vs PW","piropa.wav","tupiro.wav",2,3,NA,"Assimilable",1,38,1493,0,NA,"Word vs PW",9.41904454486766
"158",9455,"Base_SNL_1219","SNL",1,20,"right","female","1","7","Word vs PW","tupiro.wav","titupi.wav",1,3,NA,"Assimilable",1,40,2843,1,NA,"Word vs PW",11.4190445448677
"159",9456,"Base_SNL_1219","SNL",1,20,"right","female","1","8","Word vs PW","padoti.wav","kupado.wav",1,4,NA,"Assimilable",5,41,3848,0,NA,"Word vs PW",12.4190445448677
"160",9457,"Base_SNL_1101","SNL",1,25,"left","female","1","16","Word vs In FW","padoti.wav","tudoti.wav",NA,4,0.692471503495027,"Assimilable",1,1,2086,1,"Initial","Word vs FW",-27.5809554551323
"161",9458,"Base_SNL_1101","SNL",1,25,"left","female","1","14","Word vs In FW","bidaku.wav","tudaku.wav",NA,2,1.57027958370944,"Assimilable",1,5,1482,1,"Initial","Word vs FW",-23.5809554551323
"162",9459,"Base_SNL_1101","SNL",1,25,"left","female","5","9","Word vs In FW","tulabu.wav","golabu.wav",NA,1,-0.153022183371865,"Assimilable",1,14,1563,0,"Initial","Word vs FW",-14.5809554551323
"163",9460,"Base_SNL_1101","SNL",1,25,"left","female","5","10","Word vs In FW","godaku.wav","bidaku.wav",NA,2,-1.37605318340089,"Assimilable",5,15,1749,1,"Initial","Word vs FW",-13.5809554551323
"164",9461,"Base_SNL_1101","SNL",1,25,"left","female","5","12","Word vs In FW","godoti.wav","padoti.wav",NA,4,1.55017885855967,"Assimilable",1,27,1487,0,"Initial","Word vs FW",-1.58095545513234
"165",9462,"Base_SNL_1101","SNL",1,25,"left","female","1","13","Word vs In FW","golabu.wav","bilabu.wav",NA,1,-1.37605318340089,"Assimilable",1,33,2030,1,"Initial","Word vs FW",4.41904454486766
"166",9463,"Base_SNL_1101","SNL",1,25,"left","female","1","15","Word vs In FW","tupiro.wav","papiro.wav",NA,3,0.692471503495027,"Assimilable",1,36,2169,1,"Initial","Word vs FW",7.41904454486766
"167",9464,"Base_SNL_1101","SNL",1,25,"left","female","5","11","Word vs In FW","gopiro.wav","tupiro.wav",NA,3,-0.153022183371865,"Assimilable",1,40,1819,0,"Initial","Word vs FW",11.4190445448677
"168",9465,"Base_SNL_1102","SNL",2,22,"right","female","5","9","Word vs In FW","tulabu.wav","golabu.wav",NA,1,-0.153022183371865,"Assimilable",5,13,1179,1,"Initial","Word vs FW",-15.5809554551323
"169",9466,"Base_SNL_1102","SNL",2,22,"right","female","5","12","Word vs In FW","godoti.wav","padoti.wav",NA,4,1.55017885855967,"Assimilable",1,15,949,0,"Initial","Word vs FW",-13.5809554551323
"170",9467,"Base_SNL_1102","SNL",2,22,"right","female","5","10","Word vs In FW","godaku.wav","bidaku.wav",NA,2,-1.37605318340089,"Assimilable",1,17,2782,0,"Initial","Word vs FW",-11.5809554551323
"171",9468,"Base_SNL_1102","SNL",2,22,"right","female","1","13","Word vs In FW","golabu.wav","bilabu.wav",NA,1,-1.37605318340089,"Assimilable",1,20,976,1,"Initial","Word vs FW",-8.58095545513234
"172",9469,"Base_SNL_1102","SNL",2,22,"right","female","1","14","Word vs In FW","bidaku.wav","tudaku.wav",NA,2,1.57027958370944,"Assimilable",5,21,1209,0,"Initial","Word vs FW",-7.58095545513234
"173",9470,"Base_SNL_1102","SNL",2,22,"right","female","5","11","Word vs In FW","gopiro.wav","tupiro.wav",NA,3,-0.153022183371865,"Assimilable",1,30,1489,0,"Initial","Word vs FW",1.41904454486766
"174",9471,"Base_SNL_1102","SNL",2,22,"right","female","1","16","Word vs In FW","padoti.wav","tudoti.wav",NA,4,0.692471503495027,"Assimilable",5,33,1061,0,"Initial","Word vs FW",4.41904454486766
"175",9472,"Base_SNL_1102","SNL",2,22,"right","female","1","15","Word vs In FW","tupiro.wav","papiro.wav",NA,3,0.692471503495027,"Assimilable",1,44,1236,1,"Initial","Word vs FW",15.4190445448677
"176",9473,"Base_SNL_1201","SNL",1,18,"right","female","1","15","Word vs In FW","tupiro.wav","papiro.wav",NA,3,0.692471503495027,"Assimilable",1,10,2193,1,"Initial","Word vs FW",-18.5809554551323
"177",9474,"Base_SNL_1201","SNL",1,18,"right","female","5","10","Word vs In FW","godaku.wav","bidaku.wav",NA,2,-1.37605318340089,"Assimilable",5,12,4683,1,"Initial","Word vs FW",-16.5809554551323
"178",9475,"Base_SNL_1201","SNL",1,18,"right","female","5","12","Word vs In FW","godoti.wav","padoti.wav",NA,4,1.55017885855967,"Assimilable",1,15,2463,0,"Initial","Word vs FW",-13.5809554551323
"179",9476,"Base_SNL_1201","SNL",1,18,"right","female","1","13","Word vs In FW","golabu.wav","bilabu.wav",NA,1,-1.37605318340089,"Assimilable",1,19,1876,1,"Initial","Word vs FW",-9.58095545513234
"180",9477,"Base_SNL_1201","SNL",1,18,"right","female","1","14","Word vs In FW","bidaku.wav","tudaku.wav",NA,2,1.57027958370944,"Assimilable",5,37,2161,0,"Initial","Word vs FW",8.41904454486766
"181",9478,"Base_SNL_1201","SNL",1,18,"right","female","1","16","Word vs In FW","padoti.wav","tudoti.wav",NA,4,0.692471503495027,"Assimilable",1,46,4037,1,"Initial","Word vs FW",17.4190445448677
"182",9479,"Base_SNL_1201","SNL",1,18,"right","female","5","9","Word vs In FW","tulabu.wav","golabu.wav",NA,1,-0.153022183371865,"Assimilable",5,49,2082,1,"Initial","Word vs FW",20.4190445448677
"183",9480,"Base_SNL_1201","SNL",1,18,"right","female","5","11","Word vs In FW","gopiro.wav","tupiro.wav",NA,3,-0.153022183371865,"Assimilable",5,52,3375,1,"Initial","Word vs FW",23.4190445448677
"184",9481,"Base_SNL_1202","SNL",2,22,"right","male","1","16","Word vs In FW","padoti.wav","tudoti.wav",NA,4,0.692471503495027,"Assimilable",1,1,1982,1,"Initial","Word vs FW",-27.5809554551323
"185",9482,"Base_SNL_1202","SNL",2,22,"right","male","5","10","Word vs In FW","godaku.wav","bidaku.wav",NA,2,-1.37605318340089,"Assimilable",5,6,1223,1,"Initial","Word vs FW",-22.5809554551323
"186",9483,"Base_SNL_1202","SNL",2,22,"right","male","1","14","Word vs In FW","bidaku.wav","tudaku.wav",NA,2,1.57027958370944,"Assimilable",1,14,1940,1,"Initial","Word vs FW",-14.5809554551323
"187",9484,"Base_SNL_1202","SNL",2,22,"right","male","1","15","Word vs In FW","tupiro.wav","papiro.wav",NA,3,0.692471503495027,"Assimilable",1,16,2157,1,"Initial","Word vs FW",-12.5809554551323
"188",9485,"Base_SNL_1202","SNL",2,22,"right","male","5","9","Word vs In FW","tulabu.wav","golabu.wav",NA,1,-0.153022183371865,"Assimilable",5,40,2253,1,"Initial","Word vs FW",11.4190445448677
"189",9486,"Base_SNL_1202","SNL",2,22,"right","male","5","11","Word vs In FW","gopiro.wav","tupiro.wav",NA,3,-0.153022183371865,"Assimilable",1,44,1205,0,"Initial","Word vs FW",15.4190445448677
"190",9487,"Base_SNL_1202","SNL",2,22,"right","male","1","13","Word vs In FW","golabu.wav","bilabu.wav",NA,1,-1.37605318340089,"Assimilable",1,47,1906,1,"Initial","Word vs FW",18.4190445448677
"191",9488,"Base_SNL_1202","SNL",2,22,"right","male","5","12","Word vs In FW","godoti.wav","padoti.wav",NA,4,1.55017885855967,"Assimilable",5,49,2614,1,"Initial","Word vs FW",20.4190445448677
"192",9489,"Base_SNL_1203","SNL",1,20,"right","female","5","9","Word vs In FW","tulabu.wav","golabu.wav",NA,1,-0.153022183371865,"Assimilable",1,4,988,0,"Initial","Word vs FW",-24.5809554551323
"193",9490,"Base_SNL_1203","SNL",1,20,"right","female","1","15","Word vs In FW","tupiro.wav","papiro.wav",NA,3,0.692471503495027,"Assimilable",1,18,1300,1,"Initial","Word vs FW",-10.5809554551323
"194",9491,"Base_SNL_1203","SNL",1,20,"right","female","1","14","Word vs In FW","bidaku.wav","tudaku.wav",NA,2,1.57027958370944,"Assimilable",5,21,934,0,"Initial","Word vs FW",-7.58095545513234
"195",9492,"Base_SNL_1203","SNL",1,20,"right","female","5","10","Word vs In FW","godaku.wav","bidaku.wav",NA,2,-1.37605318340089,"Assimilable",1,32,1110,0,"Initial","Word vs FW",3.41904454486766
"196",9493,"Base_SNL_1203","SNL",1,20,"right","female","1","16","Word vs In FW","padoti.wav","tudoti.wav",NA,4,0.692471503495027,"Assimilable",5,35,1154,0,"Initial","Word vs FW",6.41904454486766
"197",9494,"Base_SNL_1203","SNL",1,20,"right","female","5","12","Word vs In FW","godoti.wav","padoti.wav",NA,4,1.55017885855967,"Assimilable",1,49,1300,0,"Initial","Word vs FW",20.4190445448677
"198",9495,"Base_SNL_1203","SNL",1,20,"right","female","1","13","Word vs In FW","golabu.wav","bilabu.wav",NA,1,-1.37605318340089,"Assimilable",5,52,1232,0,"Initial","Word vs FW",23.4190445448677
"199",9496,"Base_SNL_1203","SNL",1,20,"right","female","5","11","Word vs In FW","gopiro.wav","tupiro.wav",NA,3,-0.153022183371865,"Assimilable",1,55,1130,0,"Initial","Word vs FW",26.4190445448677
"200",9497,"Base_SNL_1204","SNL",2,21,"right","female","5","11","Word vs In FW","gopiro.wav","tupiro.wav",NA,3,-0.153022183371865,"Assimilable",5,1,1603,1,"Initial","Word vs FW",-27.5809554551323
"201",9498,"Base_SNL_1204","SNL",2,21,"right","female","5","10","Word vs In FW","godaku.wav","bidaku.wav",NA,2,-1.37605318340089,"Assimilable",5,3,1275,1,"Initial","Word vs FW",-25.5809554551323
"202",9499,"Base_SNL_1204","SNL",2,21,"right","female","1","16","Word vs In FW","padoti.wav","tudoti.wav",NA,4,0.692471503495027,"Assimilable",1,9,1253,1,"Initial","Word vs FW",-19.5809554551323
"203",9500,"Base_SNL_1204","SNL",2,21,"right","female","5","9","Word vs In FW","tulabu.wav","golabu.wav",NA,1,-0.153022183371865,"Assimilable",1,10,1239,0,"Initial","Word vs FW",-18.5809554551323
"204",9501,"Base_SNL_1204","SNL",2,21,"right","female","5","12","Word vs In FW","godoti.wav","padoti.wav",NA,4,1.55017885855967,"Assimilable",1,12,1475,0,"Initial","Word vs FW",-16.5809554551323
"205",9502,"Base_SNL_1204","SNL",2,21,"right","female","1","13","Word vs In FW","golabu.wav","bilabu.wav",NA,1,-1.37605318340089,"Assimilable",5,22,1055,0,"Initial","Word vs FW",-6.58095545513234
"206",9503,"Base_SNL_1204","SNL",2,21,"right","female","1","14","Word vs In FW","bidaku.wav","tudaku.wav",NA,2,1.57027958370944,"Assimilable",1,37,937,1,"Initial","Word vs FW",8.41904454486766
"207",9504,"Base_SNL_1204","SNL",2,21,"right","female","1","15","Word vs In FW","tupiro.wav","papiro.wav",NA,3,0.692471503495027,"Assimilable",1,40,1007,1,"Initial","Word vs FW",11.4190445448677
"208",9505,"Base_SNL_1205","SNL",1,18,"right","female","5","11","Word vs In FW","gopiro.wav","tupiro.wav",NA,3,-0.153022183371865,"Assimilable",1,8,1685,0,"Initial","Word vs FW",-20.5809554551323
"209",9506,"Base_SNL_1205","SNL",1,18,"right","female","1","16","Word vs In FW","padoti.wav","tudoti.wav",NA,4,0.692471503495027,"Assimilable",1,9,1692,1,"Initial","Word vs FW",-19.5809554551323
"210",9507,"Base_SNL_1205","SNL",1,18,"right","female","1","13","Word vs In FW","golabu.wav","bilabu.wav",NA,1,-1.37605318340089,"Assimilable",1,30,1231,1,"Initial","Word vs FW",1.41904454486766
"211",9508,"Base_SNL_1205","SNL",1,18,"right","female","5","9","Word vs In FW","tulabu.wav","golabu.wav",NA,1,-0.153022183371865,"Assimilable",1,35,1208,0,"Initial","Word vs FW",6.41904454486766
"212",9509,"Base_SNL_1205","SNL",1,18,"right","female","1","14","Word vs In FW","bidaku.wav","tudaku.wav",NA,2,1.57027958370944,"Assimilable",1,40,1163,1,"Initial","Word vs FW",11.4190445448677
"213",9510,"Base_SNL_1205","SNL",1,18,"right","female","5","12","Word vs In FW","godoti.wav","padoti.wav",NA,4,1.55017885855967,"Assimilable",5,45,1967,1,"Initial","Word vs FW",16.4190445448677
"214",9511,"Base_SNL_1205","SNL",1,18,"right","female","1","15","Word vs In FW","tupiro.wav","papiro.wav",NA,3,0.692471503495027,"Assimilable",5,52,1292,0,"Initial","Word vs FW",23.4190445448677
"215",9512,"Base_SNL_1205","SNL",1,18,"right","female","5","10","Word vs In FW","godaku.wav","bidaku.wav",NA,2,-1.37605318340089,"Assimilable",1,56,1654,0,"Initial","Word vs FW",27.4190445448677
"216",9513,"Base_SNL_1206","SNL",2,24,"right","female","1","15","Word vs In FW","tupiro.wav","papiro.wav",NA,3,0.692471503495027,"Assimilable",1,1,2191,1,"Initial","Word vs FW",-27.5809554551323
"217",9514,"Base_SNL_1206","SNL",2,24,"right","female","5","11","Word vs In FW","gopiro.wav","tupiro.wav",NA,3,-0.153022183371865,"Assimilable",5,3,1623,1,"Initial","Word vs FW",-25.5809554551323
"218",9515,"Base_SNL_1206","SNL",2,24,"right","female","1","16","Word vs In FW","padoti.wav","tudoti.wav",NA,4,0.692471503495027,"Assimilable",1,16,1967,1,"Initial","Word vs FW",-12.5809554551323
"219",9516,"Base_SNL_1206","SNL",2,24,"right","female","5","9","Word vs In FW","tulabu.wav","golabu.wav",NA,1,-0.153022183371865,"Assimilable",5,18,1218,1,"Initial","Word vs FW",-10.5809554551323
"220",9517,"Base_SNL_1206","SNL",2,24,"right","female","1","13","Word vs In FW","golabu.wav","bilabu.wav",NA,1,-1.37605318340089,"Assimilable",1,20,1675,1,"Initial","Word vs FW",-8.58095545513234
"221",9518,"Base_SNL_1206","SNL",2,24,"right","female","5","10","Word vs In FW","godaku.wav","bidaku.wav",NA,2,-1.37605318340089,"Assimilable",1,27,1452,0,"Initial","Word vs FW",-1.58095545513234
"222",9519,"Base_SNL_1206","SNL",2,24,"right","female","1","14","Word vs In FW","bidaku.wav","tudaku.wav",NA,2,1.57027958370944,"Assimilable",1,32,1445,1,"Initial","Word vs FW",3.41904454486766
"223",9520,"Base_SNL_1206","SNL",2,24,"right","female","5","12","Word vs In FW","godoti.wav","padoti.wav",NA,4,1.55017885855967,"Assimilable",5,42,3722,1,"Initial","Word vs FW",13.4190445448677
"224",9521,"Base_SNL_1207","SNL",1,21,"right","female","5","12","Word vs In FW","godoti.wav","padoti.wav",NA,4,1.55017885855967,"Assimilable",1,1,3018,0,"Initial","Word vs FW",-27.5809554551323
"225",9522,"Base_SNL_1207","SNL",1,21,"right","female","5","10","Word vs In FW","godaku.wav","bidaku.wav",NA,2,-1.37605318340089,"Assimilable",5,3,1479,1,"Initial","Word vs FW",-25.5809554551323
"226",9523,"Base_SNL_1207","SNL",1,21,"right","female","1","16","Word vs In FW","padoti.wav","tudoti.wav",NA,4,0.692471503495027,"Assimilable",1,27,1814,1,"Initial","Word vs FW",-1.58095545513234
"227",9524,"Base_SNL_1207","SNL",1,21,"right","female","5","9","Word vs In FW","tulabu.wav","golabu.wav",NA,1,-0.153022183371865,"Assimilable",1,29,1492,0,"Initial","Word vs FW",0.419044544867656
"228",9525,"Base_SNL_1207","SNL",1,21,"right","female","1","13","Word vs In FW","golabu.wav","bilabu.wav",NA,1,-1.37605318340089,"Assimilable",1,30,1623,1,"Initial","Word vs FW",1.41904454486766
"229",9526,"Base_SNL_1207","SNL",1,21,"right","female","1","15","Word vs In FW","tupiro.wav","papiro.wav",NA,3,0.692471503495027,"Assimilable",5,37,2538,0,"Initial","Word vs FW",8.41904454486766
"230",9527,"Base_SNL_1207","SNL",1,21,"right","female","1","14","Word vs In FW","bidaku.wav","tudaku.wav",NA,2,1.57027958370944,"Assimilable",1,40,1320,1,"Initial","Word vs FW",11.4190445448677
"231",9528,"Base_SNL_1207","SNL",1,21,"right","female","5","11","Word vs In FW","gopiro.wav","tupiro.wav",NA,3,-0.153022183371865,"Assimilable",1,55,1835,0,"Initial","Word vs FW",26.4190445448677
"232",9529,"Base_SNL_1208","SNL",2,19,"right","female","5","9","Word vs In FW","tulabu.wav","golabu.wav",NA,1,-0.153022183371865,"Assimilable",1,23,1227,0,"Initial","Word vs FW",-5.58095545513234
"233",9530,"Base_SNL_1208","SNL",2,19,"right","female","5","12","Word vs In FW","godoti.wav","padoti.wav",NA,4,1.55017885855967,"Assimilable",1,38,1786,0,"Initial","Word vs FW",9.41904454486766
"234",9531,"Base_SNL_1208","SNL",2,19,"right","female","5","11","Word vs In FW","gopiro.wav","tupiro.wav",NA,3,-0.153022183371865,"Assimilable",5,41,2009,1,"Initial","Word vs FW",12.4190445448677
"235",9532,"Base_SNL_1208","SNL",2,19,"right","female","1","16","Word vs In FW","padoti.wav","tudoti.wav",NA,4,0.692471503495027,"Assimilable",5,42,1701,0,"Initial","Word vs FW",13.4190445448677
"236",9533,"Base_SNL_1208","SNL",2,19,"right","female","5","10","Word vs In FW","godaku.wav","bidaku.wav",NA,2,-1.37605318340089,"Assimilable",1,43,1162,0,"Initial","Word vs FW",14.4190445448677
"237",9534,"Base_SNL_1208","SNL",2,19,"right","female","1","15","Word vs In FW","tupiro.wav","papiro.wav",NA,3,0.692471503495027,"Assimilable",5,46,1213,0,"Initial","Word vs FW",17.4190445448677
"238",9535,"Base_SNL_1208","SNL",2,19,"right","female","1","13","Word vs In FW","golabu.wav","bilabu.wav",NA,1,-1.37605318340089,"Assimilable",1,48,1087,1,"Initial","Word vs FW",19.4190445448677
"239",9536,"Base_SNL_1208","SNL",2,19,"right","female","1","14","Word vs In FW","bidaku.wav","tudaku.wav",NA,2,1.57027958370944,"Assimilable",5,50,1940,0,"Initial","Word vs FW",21.4190445448677
"240",9537,"Base_SNL_1209","SNL",1,29,"left","female","1","15","Word vs In FW","tupiro.wav","papiro.wav",NA,3,0.692471503495027,"Assimilable",1,15,1786,1,"Initial","Word vs FW",-13.5809554551323
"241",9538,"Base_SNL_1209","SNL",1,29,"left","female","1","13","Word vs In FW","golabu.wav","bilabu.wav",NA,1,-1.37605318340089,"Assimilable",1,17,2041,1,"Initial","Word vs FW",-11.5809554551323
"242",9539,"Base_SNL_1209","SNL",1,29,"left","female","5","10","Word vs In FW","godaku.wav","bidaku.wav",NA,2,-1.37605318340089,"Assimilable",1,19,1922,0,"Initial","Word vs FW",-9.58095545513234
"243",9540,"Base_SNL_1209","SNL",1,29,"left","female","5","9","Word vs In FW","tulabu.wav","golabu.wav",NA,1,-0.153022183371865,"Assimilable",1,24,1698,0,"Initial","Word vs FW",-4.58095545513234
"244",9541,"Base_SNL_1209","SNL",1,29,"left","female","1","16","Word vs In FW","padoti.wav","tudoti.wav",NA,4,0.692471503495027,"Assimilable",5,26,2413,0,"Initial","Word vs FW",-2.58095545513234
"245",9542,"Base_SNL_1209","SNL",1,29,"left","female","5","11","Word vs In FW","gopiro.wav","tupiro.wav",NA,3,-0.153022183371865,"Assimilable",1,41,1675,0,"Initial","Word vs FW",12.4190445448677
"246",9543,"Base_SNL_1209","SNL",1,29,"left","female","1","14","Word vs In FW","bidaku.wav","tudaku.wav",NA,2,1.57027958370944,"Assimilable",1,42,1228,1,"Initial","Word vs FW",13.4190445448677
"247",9544,"Base_SNL_1209","SNL",1,29,"left","female","5","12","Word vs In FW","godoti.wav","padoti.wav",NA,4,1.55017885855967,"Assimilable",1,43,1309,0,"Initial","Word vs FW",14.4190445448677
"248",9545,"Base_SNL_1210","SNL",2,32,"right","female","5","11","Word vs In FW","gopiro.wav","tupiro.wav",NA,3,-0.153022183371865,"Assimilable",5,5,2509,1,"Initial","Word vs FW",-23.5809554551323
"249",9546,"Base_SNL_1210","SNL",2,32,"right","female","5","12","Word vs In FW","godoti.wav","padoti.wav",NA,4,1.55017885855967,"Assimilable",5,9,1801,1,"Initial","Word vs FW",-19.5809554551323
"250",9547,"Base_SNL_1210","SNL",2,32,"right","female","5","10","Word vs In FW","godaku.wav","bidaku.wav",NA,2,-1.37605318340089,"Assimilable",5,12,1589,1,"Initial","Word vs FW",-16.5809554551323
"251",9548,"Base_SNL_1210","SNL",2,32,"right","female","1","13","Word vs In FW","golabu.wav","bilabu.wav",NA,1,-1.37605318340089,"Assimilable",1,15,1703,1,"Initial","Word vs FW",-13.5809554551323
"252",9549,"Base_SNL_1210","SNL",2,32,"right","female","1","15","Word vs In FW","tupiro.wav","papiro.wav",NA,3,0.692471503495027,"Assimilable",1,20,2774,1,"Initial","Word vs FW",-8.58095545513234
"253",9550,"Base_SNL_1210","SNL",2,32,"right","female","1","14","Word vs In FW","bidaku.wav","tudaku.wav",NA,2,1.57027958370944,"Assimilable",1,21,1428,1,"Initial","Word vs FW",-7.58095545513234
"254",9551,"Base_SNL_1210","SNL",2,32,"right","female","1","16","Word vs In FW","padoti.wav","tudoti.wav",NA,4,0.692471503495027,"Assimilable",1,50,1159,1,"Initial","Word vs FW",21.4190445448677
"255",9552,"Base_SNL_1210","SNL",2,32,"right","female","5","9","Word vs In FW","tulabu.wav","golabu.wav",NA,1,-0.153022183371865,"Assimilable",1,51,1416,0,"Initial","Word vs FW",22.4190445448677
"256",9553,"Base_SNL_1212","SNL",2,18,"right","female","5","11","Word vs In FW","gopiro.wav","tupiro.wav",NA,3,-0.153022183371865,"Assimilable",5,10,1994,1,"Initial","Word vs FW",-18.5809554551323
"257",9554,"Base_SNL_1212","SNL",2,18,"right","female","5","10","Word vs In FW","godaku.wav","bidaku.wav",NA,2,-1.37605318340089,"Assimilable",5,17,1697,1,"Initial","Word vs FW",-11.5809554551323
"258",9555,"Base_SNL_1212","SNL",2,18,"right","female","1","15","Word vs In FW","tupiro.wav","papiro.wav",NA,3,0.692471503495027,"Assimilable",1,35,2259,1,"Initial","Word vs FW",6.41904454486766
"259",9556,"Base_SNL_1212","SNL",2,18,"right","female","5","12","Word vs In FW","godoti.wav","padoti.wav",NA,4,1.55017885855967,"Assimilable",5,37,3991,1,"Initial","Word vs FW",8.41904454486766
"260",9557,"Base_SNL_1212","SNL",2,18,"right","female","1","14","Word vs In FW","bidaku.wav","tudaku.wav",NA,2,1.57027958370944,"Assimilable",1,38,2740,1,"Initial","Word vs FW",9.41904454486766
"261",9558,"Base_SNL_1212","SNL",2,18,"right","female","5","9","Word vs In FW","tulabu.wav","golabu.wav",NA,1,-0.153022183371865,"Assimilable",5,43,3317,1,"Initial","Word vs FW",14.4190445448677
"262",9559,"Base_SNL_1212","SNL",2,18,"right","female","1","16","Word vs In FW","padoti.wav","tudoti.wav",NA,4,0.692471503495027,"Assimilable",1,55,1702,1,"Initial","Word vs FW",26.4190445448677
"263",9560,"Base_SNL_1212","SNL",2,18,"right","female","1","13","Word vs In FW","golabu.wav","bilabu.wav",NA,1,-1.37605318340089,"Assimilable",1,56,2631,1,"Initial","Word vs FW",27.4190445448677
"264",9561,"Base_SNL_1213","SNL",1,18,"right","male","1","15","Word vs In FW","tupiro.wav","papiro.wav",NA,3,0.692471503495027,"Assimilable",1,5,1940,1,"Initial","Word vs FW",-23.5809554551323
"265",9562,"Base_SNL_1213","SNL",1,18,"right","male","5","12","Word vs In FW","godoti.wav","padoti.wav",NA,4,1.55017885855967,"Assimilable",5,10,2428,1,"Initial","Word vs FW",-18.5809554551323
"266",9563,"Base_SNL_1213","SNL",1,18,"right","male","1","13","Word vs In FW","golabu.wav","bilabu.wav",NA,1,-1.37605318340089,"Assimilable",1,19,2189,1,"Initial","Word vs FW",-9.58095545513234
"267",9564,"Base_SNL_1213","SNL",1,18,"right","male","5","11","Word vs In FW","gopiro.wav","tupiro.wav",NA,3,-0.153022183371865,"Assimilable",1,24,1451,0,"Initial","Word vs FW",-4.58095545513234
"268",9565,"Base_SNL_1213","SNL",1,18,"right","male","1","14","Word vs In FW","bidaku.wav","tudaku.wav",NA,2,1.57027958370944,"Assimilable",1,30,1321,1,"Initial","Word vs FW",1.41904454486766
"269",9566,"Base_SNL_1213","SNL",1,18,"right","male","5","10","Word vs In FW","godaku.wav","bidaku.wav",NA,2,-1.37605318340089,"Assimilable",1,33,1588,0,"Initial","Word vs FW",4.41904454486766
"270",9567,"Base_SNL_1213","SNL",1,18,"right","male","1","16","Word vs In FW","padoti.wav","tudoti.wav",NA,4,0.692471503495027,"Assimilable",1,45,1809,1,"Initial","Word vs FW",16.4190445448677
"271",9568,"Base_SNL_1213","SNL",1,18,"right","male","5","9","Word vs In FW","tulabu.wav","golabu.wav",NA,1,-0.153022183371865,"Assimilable",1,46,1830,0,"Initial","Word vs FW",17.4190445448677
"272",9569,"Base_SNL_1214","SNL",2,18,"left","female","1","15","Word vs In FW","tupiro.wav","papiro.wav",NA,3,0.692471503495027,"Assimilable",5,3,2140,0,"Initial","Word vs FW",-25.5809554551323
"273",9570,"Base_SNL_1214","SNL",2,18,"left","female","1","14","Word vs In FW","bidaku.wav","tudaku.wav",NA,2,1.57027958370944,"Assimilable",1,8,2924,1,"Initial","Word vs FW",-20.5809554551323
"274",9571,"Base_SNL_1214","SNL",2,18,"left","female","1","13","Word vs In FW","golabu.wav","bilabu.wav",NA,1,-1.37605318340089,"Assimilable",5,11,3544,0,"Initial","Word vs FW",-17.5809554551323
"275",9572,"Base_SNL_1214","SNL",2,18,"left","female","5","10","Word vs In FW","godaku.wav","bidaku.wav",NA,2,-1.37605318340089,"Assimilable",5,14,1094,1,"Initial","Word vs FW",-14.5809554551323
"276",9573,"Base_SNL_1214","SNL",2,18,"left","female","1","16","Word vs In FW","padoti.wav","tudoti.wav",NA,4,0.692471503495027,"Assimilable",1,17,1185,1,"Initial","Word vs FW",-11.5809554551323
"277",9574,"Base_SNL_1214","SNL",2,18,"left","female","5","12","Word vs In FW","godoti.wav","padoti.wav",NA,4,1.55017885855967,"Assimilable",1,25,1419,0,"Initial","Word vs FW",-3.58095545513234
"278",9575,"Base_SNL_1214","SNL",2,18,"left","female","5","11","Word vs In FW","gopiro.wav","tupiro.wav",NA,3,-0.153022183371865,"Assimilable",1,30,2122,0,"Initial","Word vs FW",1.41904454486766
"279",9576,"Base_SNL_1214","SNL",2,18,"left","female","5","9","Word vs In FW","tulabu.wav","golabu.wav",NA,1,-0.153022183371865,"Assimilable",5,46,1930,1,"Initial","Word vs FW",17.4190445448677
"280",9577,"Base_SNL_1215","SNL",1,30,"right","male","1","16","Word vs In FW","padoti.wav","tudoti.wav",NA,4,0.692471503495027,"Assimilable",1,1,2360,1,"Initial","Word vs FW",-27.5809554551323
"281",9578,"Base_SNL_1215","SNL",1,30,"right","male","5","12","Word vs In FW","godoti.wav","padoti.wav",NA,4,1.55017885855967,"Assimilable",5,2,1975,1,"Initial","Word vs FW",-26.5809554551323
"282",9579,"Base_SNL_1215","SNL",1,30,"right","male","1","13","Word vs In FW","golabu.wav","bilabu.wav",NA,1,-1.37605318340089,"Assimilable",1,7,1728,1,"Initial","Word vs FW",-21.5809554551323
"283",9580,"Base_SNL_1215","SNL",1,30,"right","male","1","14","Word vs In FW","bidaku.wav","tudaku.wav",NA,2,1.57027958370944,"Assimilable",1,21,1793,1,"Initial","Word vs FW",-7.58095545513234
"284",9581,"Base_SNL_1215","SNL",1,30,"right","male","1","15","Word vs In FW","tupiro.wav","papiro.wav",NA,3,0.692471503495027,"Assimilable",1,31,1909,1,"Initial","Word vs FW",2.41904454486766
"285",9582,"Base_SNL_1215","SNL",1,30,"right","male","5","10","Word vs In FW","godaku.wav","bidaku.wav",NA,2,-1.37605318340089,"Assimilable",1,32,2092,0,"Initial","Word vs FW",3.41904454486766
"286",9583,"Base_SNL_1215","SNL",1,30,"right","male","5","9","Word vs In FW","tulabu.wav","golabu.wav",NA,1,-0.153022183371865,"Assimilable",5,46,1646,1,"Initial","Word vs FW",17.4190445448677
"287",9584,"Base_SNL_1215","SNL",1,30,"right","male","5","11","Word vs In FW","gopiro.wav","tupiro.wav",NA,3,-0.153022183371865,"Assimilable",1,48,1673,0,"Initial","Word vs FW",19.4190445448677
"288",9585,"Base_SNL_1216","SNL",2,18,"right","female","5","10","Word vs In FW","godaku.wav","bidaku.wav",NA,2,-1.37605318340089,"Assimilable",5,18,1165,1,"Initial","Word vs FW",-10.5809554551323
"289",9586,"Base_SNL_1216","SNL",2,18,"right","female","1","13","Word vs In FW","golabu.wav","bilabu.wav",NA,1,-1.37605318340089,"Assimilable",1,24,1210,1,"Initial","Word vs FW",-4.58095545513234
"290",9587,"Base_SNL_1216","SNL",2,18,"right","female","1","14","Word vs In FW","bidaku.wav","tudaku.wav",NA,2,1.57027958370944,"Assimilable",1,32,1104,1,"Initial","Word vs FW",3.41904454486766
"291",9588,"Base_SNL_1216","SNL",2,18,"right","female","5","12","Word vs In FW","godoti.wav","padoti.wav",NA,4,1.55017885855967,"Assimilable",5,38,1943,1,"Initial","Word vs FW",9.41904454486766
"292",9589,"Base_SNL_1216","SNL",2,18,"right","female","5","11","Word vs In FW","gopiro.wav","tupiro.wav",NA,3,-0.153022183371865,"Assimilable",1,39,1657,0,"Initial","Word vs FW",10.4190445448677
"293",9590,"Base_SNL_1216","SNL",2,18,"right","female","5","9","Word vs In FW","tulabu.wav","golabu.wav",NA,1,-0.153022183371865,"Assimilable",5,41,2029,1,"Initial","Word vs FW",12.4190445448677
"294",9591,"Base_SNL_1216","SNL",2,18,"right","female","1","16","Word vs In FW","padoti.wav","tudoti.wav",NA,4,0.692471503495027,"Assimilable",1,43,2031,1,"Initial","Word vs FW",14.4190445448677
"295",9592,"Base_SNL_1216","SNL",2,18,"right","female","1","15","Word vs In FW","tupiro.wav","papiro.wav",NA,3,0.692471503495027,"Assimilable",5,46,1599,0,"Initial","Word vs FW",17.4190445448677
"296",9593,"Base_SNL_1217","SNL",1,18,"right","female","1","16","Word vs In FW","padoti.wav","tudoti.wav",NA,4,0.692471503495027,"Assimilable",1,1,1827,1,"Initial","Word vs FW",-27.5809554551323
"297",9594,"Base_SNL_1217","SNL",1,18,"right","female","1","14","Word vs In FW","bidaku.wav","tudaku.wav",NA,2,1.57027958370944,"Assimilable",1,7,991,1,"Initial","Word vs FW",-21.5809554551323
"298",9595,"Base_SNL_1217","SNL",1,18,"right","female","1","13","Word vs In FW","golabu.wav","bilabu.wav",NA,1,-1.37605318340089,"Assimilable",1,14,1487,1,"Initial","Word vs FW",-14.5809554551323
"299",9596,"Base_SNL_1217","SNL",1,18,"right","female","5","11","Word vs In FW","gopiro.wav","tupiro.wav",NA,3,-0.153022183371865,"Assimilable",1,22,1166,0,"Initial","Word vs FW",-6.58095545513234
"300",9597,"Base_SNL_1217","SNL",1,18,"right","female","5","9","Word vs In FW","tulabu.wav","golabu.wav",NA,1,-0.153022183371865,"Assimilable",1,41,1645,0,"Initial","Word vs FW",12.4190445448677
"301",9598,"Base_SNL_1217","SNL",1,18,"right","female","1","15","Word vs In FW","tupiro.wav","papiro.wav",NA,3,0.692471503495027,"Assimilable",5,43,1822,0,"Initial","Word vs FW",14.4190445448677
"302",9599,"Base_SNL_1217","SNL",1,18,"right","female","5","12","Word vs In FW","godoti.wav","padoti.wav",NA,4,1.55017885855967,"Assimilable",5,45,862,1,"Initial","Word vs FW",16.4190445448677
"303",9600,"Base_SNL_1217","SNL",1,18,"right","female","5","10","Word vs In FW","godaku.wav","bidaku.wav",NA,2,-1.37605318340089,"Assimilable",5,50,1531,1,"Initial","Word vs FW",21.4190445448677
"304",9601,"Base_SNL_1218","SNL",2,19,"right","female","5","10","Word vs In FW","godaku.wav","bidaku.wav",NA,2,-1.37605318340089,"Assimilable",1,5,1266,0,"Initial","Word vs FW",-23.5809554551323
"305",9602,"Base_SNL_1218","SNL",2,19,"right","female","1","16","Word vs In FW","padoti.wav","tudoti.wav",NA,4,0.692471503495027,"Assimilable",1,14,1301,1,"Initial","Word vs FW",-14.5809554551323
"306",9603,"Base_SNL_1218","SNL",2,19,"right","female","1","14","Word vs In FW","bidaku.wav","tudaku.wav",NA,2,1.57027958370944,"Assimilable",5,16,1308,0,"Initial","Word vs FW",-12.5809554551323
"307",9604,"Base_SNL_1218","SNL",2,19,"right","female","5","12","Word vs In FW","godoti.wav","padoti.wav",NA,4,1.55017885855967,"Assimilable",5,20,1776,1,"Initial","Word vs FW",-8.58095545513234
"308",9605,"Base_SNL_1218","SNL",2,19,"right","female","1","13","Word vs In FW","golabu.wav","bilabu.wav",NA,1,-1.37605318340089,"Assimilable",1,29,1274,1,"Initial","Word vs FW",0.419044544867656
"309",9606,"Base_SNL_1218","SNL",2,19,"right","female","1","15","Word vs In FW","tupiro.wav","papiro.wav",NA,3,0.692471503495027,"Assimilable",1,36,1199,1,"Initial","Word vs FW",7.41904454486766
"310",9607,"Base_SNL_1218","SNL",2,19,"right","female","5","9","Word vs In FW","tulabu.wav","golabu.wav",NA,1,-0.153022183371865,"Assimilable",5,37,1201,1,"Initial","Word vs FW",8.41904454486766
"311",9608,"Base_SNL_1218","SNL",2,19,"right","female","5","11","Word vs In FW","gopiro.wav","tupiro.wav",NA,3,-0.153022183371865,"Assimilable",5,40,1179,1,"Initial","Word vs FW",11.4190445448677
"312",9609,"Base_SNL_1219","SNL",1,20,"right","female","1","13","Word vs In FW","golabu.wav","bilabu.wav",NA,1,-1.37605318340089,"Assimilable",1,1,1361,1,"Initial","Word vs FW",-27.5809554551323
"313",9610,"Base_SNL_1219","SNL",1,20,"right","female","5","10","Word vs In FW","godaku.wav","bidaku.wav",NA,2,-1.37605318340089,"Assimilable",1,4,1006,0,"Initial","Word vs FW",-24.5809554551323
"314",9611,"Base_SNL_1219","SNL",1,20,"right","female","1","16","Word vs In FW","padoti.wav","tudoti.wav",NA,4,0.692471503495027,"Assimilable",1,24,1521,1,"Initial","Word vs FW",-4.58095545513234
"315",9612,"Base_SNL_1219","SNL",1,20,"right","female","5","12","Word vs In FW","godoti.wav","padoti.wav",NA,4,1.55017885855967,"Assimilable",5,25,982,1,"Initial","Word vs FW",-3.58095545513234
"316",9613,"Base_SNL_1219","SNL",1,20,"right","female","5","11","Word vs In FW","gopiro.wav","tupiro.wav",NA,3,-0.153022183371865,"Assimilable",5,42,851,1,"Initial","Word vs FW",13.4190445448677
"317",9614,"Base_SNL_1219","SNL",1,20,"right","female","5","9","Word vs In FW","tulabu.wav","golabu.wav",NA,1,-0.153022183371865,"Assimilable",1,46,1648,0,"Initial","Word vs FW",17.4190445448677
"318",9615,"Base_SNL_1219","SNL",1,20,"right","female","1","14","Word vs In FW","bidaku.wav","tudaku.wav",NA,2,1.57027958370944,"Assimilable",1,49,1948,1,"Initial","Word vs FW",20.4190445448677
"319",9616,"Base_SNL_1219","SNL",1,20,"right","female","1","15","Word vs In FW","tupiro.wav","papiro.wav",NA,3,0.692471503495027,"Assimilable",1,51,4779,1,"Initial","Word vs FW",22.4190445448677
"320",9617,"Base_SNL_1101","SNL",1,25,"left","female","1","23","Word vs Med FW","tupiro.wav","tudoro.wav",NA,3,0.78743659067127,"Assimilable",1,2,1542,1,"Medial","Word vs FW",-26.5809554551323
"321",9618,"Base_SNL_1101","SNL",1,25,"left","female","5","19","Word vs Med FW","tularo.wav","tupiro.wav",NA,3,-0.00103410482854406,"Assimilable",1,7,1792,0,"Medial","Word vs FW",-21.5809554551323
"322",9619,"Base_SNL_1101","SNL",1,25,"left","female","5","18","Word vs Med FW","bilaku.wav","bidaku.wav",NA,2,-1.52252388653165,"Assimilable",1,10,1882,0,"Medial","Word vs FW",-18.5809554551323
"323",9620,"Base_SNL_1101","SNL",1,25,"left","female","1","21","Word vs Med FW","golabu.wav","godabu.wav",NA,1,-1.52252388653165,"Assimilable",1,16,1540,1,"Medial","Word vs FW",-12.5809554551323
"324",9621,"Base_SNL_1101","SNL",1,25,"left","female","1","24","Word vs Med FW","padoti.wav","padati.wav",NA,4,-0.92133218787024,"Assimilable",1,18,1155,1,"Medial","Word vs FW",-10.5809554551323
"325",9622,"Base_SNL_1101","SNL",1,25,"left","female","1","22","Word vs Med FW","bidaku.wav","bipiku.wav",NA,2,2.10086601072187,"Assimilable",1,32,1298,1,"Medial","Word vs FW",3.41904454486766
"326",9623,"Base_SNL_1101","SNL",1,25,"left","female","5","17","Word vs Med FW","gopibu.wav","golabu.wav",NA,1,-0.00103410482854406,"Assimilable",5,47,1333,1,"Medial","Word vs FW",18.4190445448677
"327",9624,"Base_SNL_1101","SNL",1,25,"left","female","5","20","Word vs Med FW","papiti.wav","padoti.wav",NA,4,0.78743659067127,"Assimilable",5,55,1216,1,"Medial","Word vs FW",26.4190445448677
"328",9625,"Base_SNL_1102","SNL",2,22,"right","female","5","18","Word vs Med FW","bilaku.wav","bidaku.wav",NA,2,-1.52252388653165,"Assimilable",1,1,1821,0,"Medial","Word vs FW",-27.5809554551323
"329",9626,"Base_SNL_1102","SNL",2,22,"right","female","5","17","Word vs Med FW","gopibu.wav","golabu.wav",NA,1,-0.00103410482854406,"Assimilable",1,12,912,0,"Medial","Word vs FW",-16.5809554551323
"330",9627,"Base_SNL_1102","SNL",2,22,"right","female","5","20","Word vs Med FW","papiti.wav","padoti.wav",NA,4,0.78743659067127,"Assimilable",5,22,2822,1,"Medial","Word vs FW",-6.58095545513234
"331",9628,"Base_SNL_1102","SNL",2,22,"right","female","1","22","Word vs Med FW","bidaku.wav","bipiku.wav",NA,2,2.10086601072187,"Assimilable",1,25,852,1,"Medial","Word vs FW",-3.58095545513234
"332",9629,"Base_SNL_1102","SNL",2,22,"right","female","5","19","Word vs Med FW","tularo.wav","tupiro.wav",NA,3,-0.00103410482854406,"Assimilable",1,31,1602,0,"Medial","Word vs FW",2.41904454486766
"333",9630,"Base_SNL_1102","SNL",2,22,"right","female","1","23","Word vs Med FW","tupiro.wav","tudoro.wav",NA,3,0.78743659067127,"Assimilable",5,35,1213,0,"Medial","Word vs FW",6.41904454486766
"334",9631,"Base_SNL_1102","SNL",2,22,"right","female","1","21","Word vs Med FW","golabu.wav","godabu.wav",NA,1,-1.52252388653165,"Assimilable",1,38,984,1,"Medial","Word vs FW",9.41904454486766
"335",9632,"Base_SNL_1102","SNL",2,22,"right","female","1","24","Word vs Med FW","padoti.wav","padati.wav",NA,4,-0.92133218787024,"Assimilable",1,47,1380,1,"Medial","Word vs FW",18.4190445448677
"336",9633,"Base_SNL_1201","SNL",1,18,"right","female","1","24","Word vs Med FW","padoti.wav","padati.wav",NA,4,-0.92133218787024,"Assimilable",1,2,1447,1,"Medial","Word vs FW",-26.5809554551323
"337",9634,"Base_SNL_1201","SNL",1,18,"right","female","1","21","Word vs Med FW","golabu.wav","godabu.wav",NA,1,-1.52252388653165,"Assimilable",1,7,1409,1,"Medial","Word vs FW",-21.5809554551323
"338",9635,"Base_SNL_1201","SNL",1,18,"right","female","1","23","Word vs Med FW","tupiro.wav","tudoro.wav",NA,3,0.78743659067127,"Assimilable",1,14,1554,1,"Medial","Word vs FW",-14.5809554551323
"339",9636,"Base_SNL_1201","SNL",1,18,"right","female","5","20","Word vs Med FW","papiti.wav","padoti.wav",NA,4,0.78743659067127,"Assimilable",1,26,1053,0,"Medial","Word vs FW",-2.58095545513234
"340",9637,"Base_SNL_1201","SNL",1,18,"right","female","1","22","Word vs Med FW","bidaku.wav","bipiku.wav",NA,2,2.10086601072187,"Assimilable",5,28,4467,0,"Medial","Word vs FW",-0.580955455132344
"341",9638,"Base_SNL_1201","SNL",1,18,"right","female","5","18","Word vs Med FW","bilaku.wav","bidaku.wav",NA,2,-1.52252388653165,"Assimilable",1,50,1268,0,"Medial","Word vs FW",21.4190445448677
"342",9639,"Base_SNL_1201","SNL",1,18,"right","female","5","17","Word vs Med FW","gopibu.wav","golabu.wav",NA,1,-0.00103410482854406,"Assimilable",5,55,2324,1,"Medial","Word vs FW",26.4190445448677
"343",9640,"Base_SNL_1201","SNL",1,18,"right","female","5","19","Word vs Med FW","tularo.wav","tupiro.wav",NA,3,-0.00103410482854406,"Assimilable",1,56,2023,0,"Medial","Word vs FW",27.4190445448677
"344",9641,"Base_SNL_1202","SNL",2,22,"right","male","5","18","Word vs Med FW","bilaku.wav","bidaku.wav",NA,2,-1.52252388653165,"Assimilable",5,3,2429,1,"Medial","Word vs FW",-25.5809554551323
"345",9642,"Base_SNL_1202","SNL",2,22,"right","male","1","21","Word vs Med FW","golabu.wav","godabu.wav",NA,1,-1.52252388653165,"Assimilable",5,9,1246,0,"Medial","Word vs FW",-19.5809554551323
"346",9643,"Base_SNL_1202","SNL",2,22,"right","male","1","22","Word vs Med FW","bidaku.wav","bipiku.wav",NA,2,2.10086601072187,"Assimilable",1,11,2261,1,"Medial","Word vs FW",-17.5809554551323
"347",9644,"Base_SNL_1202","SNL",2,22,"right","male","5","17","Word vs Med FW","gopibu.wav","golabu.wav",NA,1,-0.00103410482854406,"Assimilable",5,12,2047,1,"Medial","Word vs FW",-16.5809554551323
"348",9645,"Base_SNL_1202","SNL",2,22,"right","male","5","20","Word vs Med FW","papiti.wav","padoti.wav",NA,4,0.78743659067127,"Assimilable",5,19,2040,1,"Medial","Word vs FW",-9.58095545513234
"349",9646,"Base_SNL_1202","SNL",2,22,"right","male","1","23","Word vs Med FW","tupiro.wav","tudoro.wav",NA,3,0.78743659067127,"Assimilable",5,33,2240,0,"Medial","Word vs FW",4.41904454486766
"350",9647,"Base_SNL_1202","SNL",2,22,"right","male","1","24","Word vs Med FW","padoti.wav","padati.wav",NA,4,-0.92133218787024,"Assimilable",5,50,2631,0,"Medial","Word vs FW",21.4190445448677
"351",9648,"Base_SNL_1202","SNL",2,22,"right","male","5","19","Word vs Med FW","tularo.wav","tupiro.wav",NA,3,-0.00103410482854406,"Assimilable",5,54,2944,1,"Medial","Word vs FW",25.4190445448677
"352",9649,"Base_SNL_1203","SNL",1,20,"right","female","1","21","Word vs Med FW","golabu.wav","godabu.wav",NA,1,-1.52252388653165,"Assimilable",1,6,1506,1,"Medial","Word vs FW",-22.5809554551323
"353",9650,"Base_SNL_1203","SNL",1,20,"right","female","1","23","Word vs Med FW","tupiro.wav","tudoro.wav",NA,3,0.78743659067127,"Assimilable",1,8,999,1,"Medial","Word vs FW",-20.5809554551323
"354",9651,"Base_SNL_1203","SNL",1,20,"right","female","5","17","Word vs Med FW","gopibu.wav","golabu.wav",NA,1,-0.00103410482854406,"Assimilable",5,10,909,1,"Medial","Word vs FW",-18.5809554551323
"355",9652,"Base_SNL_1203","SNL",1,20,"right","female","5","18","Word vs Med FW","bilaku.wav","bidaku.wav",NA,2,-1.52252388653165,"Assimilable",5,25,1011,1,"Medial","Word vs FW",-3.58095545513234
"356",9653,"Base_SNL_1203","SNL",1,20,"right","female","5","20","Word vs Med FW","papiti.wav","padoti.wav",NA,4,0.78743659067127,"Assimilable",5,29,1429,1,"Medial","Word vs FW",0.419044544867656
"357",9654,"Base_SNL_1203","SNL",1,20,"right","female","1","24","Word vs Med FW","padoti.wav","padati.wav",NA,4,-0.92133218787024,"Assimilable",1,40,905,1,"Medial","Word vs FW",11.4190445448677
"358",9655,"Base_SNL_1203","SNL",1,20,"right","female","5","19","Word vs Med FW","tularo.wav","tupiro.wav",NA,3,-0.00103410482854406,"Assimilable",5,41,932,1,"Medial","Word vs FW",12.4190445448677
"359",9656,"Base_SNL_1203","SNL",1,20,"right","female","1","22","Word vs Med FW","bidaku.wav","bipiku.wav",NA,2,2.10086601072187,"Assimilable",5,54,959,0,"Medial","Word vs FW",25.4190445448677
"360",9657,"Base_SNL_1204","SNL",2,21,"right","female","1","22","Word vs Med FW","bidaku.wav","bipiku.wav",NA,2,2.10086601072187,"Assimilable",1,2,1463,1,"Medial","Word vs FW",-26.5809554551323
"361",9658,"Base_SNL_1204","SNL",2,21,"right","female","1","21","Word vs Med FW","golabu.wav","godabu.wav",NA,1,-1.52252388653165,"Assimilable",1,20,1141,1,"Medial","Word vs FW",-8.58095545513234
"362",9659,"Base_SNL_1204","SNL",2,21,"right","female","5","20","Word vs Med FW","papiti.wav","padoti.wav",NA,4,0.78743659067127,"Assimilable",1,25,1318,0,"Medial","Word vs FW",-3.58095545513234
"363",9660,"Base_SNL_1204","SNL",2,21,"right","female","1","23","Word vs Med FW","tupiro.wav","tudoro.wav",NA,3,0.78743659067127,"Assimilable",1,28,1146,1,"Medial","Word vs FW",-0.580955455132344
"364",9661,"Base_SNL_1204","SNL",2,21,"right","female","5","19","Word vs Med FW","tularo.wav","tupiro.wav",NA,3,-0.00103410482854406,"Assimilable",1,32,1183,0,"Medial","Word vs FW",3.41904454486766
"365",9662,"Base_SNL_1204","SNL",2,21,"right","female","5","17","Word vs Med FW","gopibu.wav","golabu.wav",NA,1,-0.00103410482854406,"Assimilable",1,34,1290,0,"Medial","Word vs FW",5.41904454486766
"366",9663,"Base_SNL_1204","SNL",2,21,"right","female","5","18","Word vs Med FW","bilaku.wav","bidaku.wav",NA,2,-1.52252388653165,"Assimilable",1,41,1512,0,"Medial","Word vs FW",12.4190445448677
"367",9664,"Base_SNL_1204","SNL",2,21,"right","female","1","24","Word vs Med FW","padoti.wav","padati.wav",NA,4,-0.92133218787024,"Assimilable",1,42,1264,1,"Medial","Word vs FW",13.4190445448677
"368",9665,"Base_SNL_1205","SNL",1,18,"right","female","1","24","Word vs Med FW","padoti.wav","padati.wav",NA,4,-0.92133218787024,"Assimilable",1,11,1705,1,"Medial","Word vs FW",-17.5809554551323
"369",9666,"Base_SNL_1205","SNL",1,18,"right","female","1","21","Word vs Med FW","golabu.wav","godabu.wav",NA,1,-1.52252388653165,"Assimilable",1,18,1847,1,"Medial","Word vs FW",-10.5809554551323
"370",9667,"Base_SNL_1205","SNL",1,18,"right","female","5","18","Word vs Med FW","bilaku.wav","bidaku.wav",NA,2,-1.52252388653165,"Assimilable",1,28,1605,0,"Medial","Word vs FW",-0.580955455132344
"371",9668,"Base_SNL_1205","SNL",1,18,"right","female","5","17","Word vs Med FW","gopibu.wav","golabu.wav",NA,1,-0.00103410482854406,"Assimilable",5,29,1176,1,"Medial","Word vs FW",0.419044544867656
"372",9669,"Base_SNL_1205","SNL",1,18,"right","female","1","22","Word vs Med FW","bidaku.wav","bipiku.wav",NA,2,2.10086601072187,"Assimilable",5,38,1631,0,"Medial","Word vs FW",9.41904454486766
"373",9670,"Base_SNL_1205","SNL",1,18,"right","female","1","23","Word vs Med FW","tupiro.wav","tudoro.wav",NA,3,0.78743659067127,"Assimilable",1,39,1284,1,"Medial","Word vs FW",10.4190445448677
"374",9671,"Base_SNL_1205","SNL",1,18,"right","female","5","20","Word vs Med FW","papiti.wav","padoti.wav",NA,4,0.78743659067127,"Assimilable",5,43,2307,1,"Medial","Word vs FW",14.4190445448677
"375",9672,"Base_SNL_1205","SNL",1,18,"right","female","5","19","Word vs Med FW","tularo.wav","tupiro.wav",NA,3,-0.00103410482854406,"Assimilable",1,55,1307,0,"Medial","Word vs FW",26.4190445448677
"376",9673,"Base_SNL_1206","SNL",2,24,"right","female","5","18","Word vs Med FW","bilaku.wav","bidaku.wav",NA,2,-1.52252388653165,"Assimilable",1,8,2305,0,"Medial","Word vs FW",-20.5809554551323
"377",9674,"Base_SNL_1206","SNL",2,24,"right","female","5","19","Word vs Med FW","tularo.wav","tupiro.wav",NA,3,-0.00103410482854406,"Assimilable",1,14,1508,0,"Medial","Word vs FW",-14.5809554551323
"378",9675,"Base_SNL_1206","SNL",2,24,"right","female","1","24","Word vs Med FW","padoti.wav","padati.wav",NA,4,-0.92133218787024,"Assimilable",1,17,1631,1,"Medial","Word vs FW",-11.5809554551323
"379",9676,"Base_SNL_1206","SNL",2,24,"right","female","5","20","Word vs Med FW","papiti.wav","padoti.wav",NA,4,0.78743659067127,"Assimilable",5,24,1924,1,"Medial","Word vs FW",-4.58095545513234
"380",9677,"Base_SNL_1206","SNL",2,24,"right","female","1","23","Word vs Med FW","tupiro.wav","tudoro.wav",NA,3,0.78743659067127,"Assimilable",5,25,1319,0,"Medial","Word vs FW",-3.58095545513234
"381",9678,"Base_SNL_1206","SNL",2,24,"right","female","1","22","Word vs Med FW","bidaku.wav","bipiku.wav",NA,2,2.10086601072187,"Assimilable",1,29,2674,1,"Medial","Word vs FW",0.419044544867656
"382",9679,"Base_SNL_1206","SNL",2,24,"right","female","5","17","Word vs Med FW","gopibu.wav","golabu.wav",NA,1,-0.00103410482854406,"Assimilable",5,31,1417,1,"Medial","Word vs FW",2.41904454486766
"383",9680,"Base_SNL_1206","SNL",2,24,"right","female","1","21","Word vs Med FW","golabu.wav","godabu.wav",NA,1,-1.52252388653165,"Assimilable",1,47,1480,1,"Medial","Word vs FW",18.4190445448677
"384",9681,"Base_SNL_1207","SNL",1,21,"right","female","1","22","Word vs Med FW","bidaku.wav","bipiku.wav",NA,2,2.10086601072187,"Assimilable",1,4,1391,1,"Medial","Word vs FW",-24.5809554551323
"385",9682,"Base_SNL_1207","SNL",1,21,"right","female","1","23","Word vs Med FW","tupiro.wav","tudoro.wav",NA,3,0.78743659067127,"Assimilable",5,8,3225,0,"Medial","Word vs FW",-20.5809554551323
"386",9683,"Base_SNL_1207","SNL",1,21,"right","female","5","17","Word vs Med FW","gopibu.wav","golabu.wav",NA,1,-0.00103410482854406,"Assimilable",5,12,1184,1,"Medial","Word vs FW",-16.5809554551323
"387",9684,"Base_SNL_1207","SNL",1,21,"right","female","1","21","Word vs Med FW","golabu.wav","godabu.wav",NA,1,-1.52252388653165,"Assimilable",1,19,2496,1,"Medial","Word vs FW",-9.58095545513234
"388",9685,"Base_SNL_1207","SNL",1,21,"right","female","5","20","Word vs Med FW","papiti.wav","padoti.wav",NA,4,0.78743659067127,"Assimilable",5,32,1206,1,"Medial","Word vs FW",3.41904454486766
"389",9686,"Base_SNL_1207","SNL",1,21,"right","female","5","19","Word vs Med FW","tularo.wav","tupiro.wav",NA,3,-0.00103410482854406,"Assimilable",1,39,1787,0,"Medial","Word vs FW",10.4190445448677
"390",9687,"Base_SNL_1207","SNL",1,21,"right","female","1","24","Word vs Med FW","padoti.wav","padati.wav",NA,4,-0.92133218787024,"Assimilable",1,44,1094,1,"Medial","Word vs FW",15.4190445448677
"391",9688,"Base_SNL_1207","SNL",1,21,"right","female","5","18","Word vs Med FW","bilaku.wav","bidaku.wav",NA,2,-1.52252388653165,"Assimilable",1,45,1170,0,"Medial","Word vs FW",16.4190445448677
"392",9689,"Base_SNL_1208","SNL",2,19,"right","female","1","22","Word vs Med FW","bidaku.wav","bipiku.wav",NA,2,2.10086601072187,"Assimilable",1,7,1161,1,"Medial","Word vs FW",-21.5809554551323
"393",9690,"Base_SNL_1208","SNL",2,19,"right","female","5","19","Word vs Med FW","tularo.wav","tupiro.wav",NA,3,-0.00103410482854406,"Assimilable",5,9,1695,1,"Medial","Word vs FW",-19.5809554551323
"394",9691,"Base_SNL_1208","SNL",2,19,"right","female","5","20","Word vs Med FW","papiti.wav","padoti.wav",NA,4,0.78743659067127,"Assimilable",1,13,1930,0,"Medial","Word vs FW",-15.5809554551323
"395",9692,"Base_SNL_1208","SNL",2,19,"right","female","5","18","Word vs Med FW","bilaku.wav","bidaku.wav",NA,2,-1.52252388653165,"Assimilable",5,16,1242,1,"Medial","Word vs FW",-12.5809554551323
"396",9693,"Base_SNL_1208","SNL",2,19,"right","female","1","24","Word vs Med FW","padoti.wav","padati.wav",NA,4,-0.92133218787024,"Assimilable",1,18,1239,1,"Medial","Word vs FW",-10.5809554551323
"397",9694,"Base_SNL_1208","SNL",2,19,"right","female","1","23","Word vs Med FW","tupiro.wav","tudoro.wav",NA,3,0.78743659067127,"Assimilable",5,31,2042,0,"Medial","Word vs FW",2.41904454486766
"398",9695,"Base_SNL_1208","SNL",2,19,"right","female","5","17","Word vs Med FW","gopibu.wav","golabu.wav",NA,1,-0.00103410482854406,"Assimilable",1,32,1555,0,"Medial","Word vs FW",3.41904454486766
"399",9696,"Base_SNL_1208","SNL",2,19,"right","female","1","21","Word vs Med FW","golabu.wav","godabu.wav",NA,1,-1.52252388653165,"Assimilable",1,40,1001,1,"Medial","Word vs FW",11.4190445448677
"400",9697,"Base_SNL_1209","SNL",1,29,"left","female","5","19","Word vs Med FW","tularo.wav","tupiro.wav",NA,3,-0.00103410482854406,"Assimilable",1,1,2622,0,"Medial","Word vs FW",-27.5809554551323
"401",9698,"Base_SNL_1209","SNL",1,29,"left","female","5","17","Word vs Med FW","gopibu.wav","golabu.wav",NA,1,-0.00103410482854406,"Assimilable",5,27,1867,1,"Medial","Word vs FW",-1.58095545513234
"402",9699,"Base_SNL_1209","SNL",1,29,"left","female","1","23","Word vs Med FW","tupiro.wav","tudoro.wav",NA,3,0.78743659067127,"Assimilable",5,30,1934,0,"Medial","Word vs FW",1.41904454486766
"403",9700,"Base_SNL_1209","SNL",1,29,"left","female","1","22","Word vs Med FW","bidaku.wav","bipiku.wav",NA,2,2.10086601072187,"Assimilable",1,31,1549,1,"Medial","Word vs FW",2.41904454486766
"404",9701,"Base_SNL_1209","SNL",1,29,"left","female","5","20","Word vs Med FW","papiti.wav","padoti.wav",NA,4,0.78743659067127,"Assimilable",1,32,2165,0,"Medial","Word vs FW",3.41904454486766
"405",9702,"Base_SNL_1209","SNL",1,29,"left","female","1","21","Word vs Med FW","golabu.wav","godabu.wav",NA,1,-1.52252388653165,"Assimilable",1,33,1828,1,"Medial","Word vs FW",4.41904454486766
"406",9703,"Base_SNL_1209","SNL",1,29,"left","female","5","18","Word vs Med FW","bilaku.wav","bidaku.wav",NA,2,-1.52252388653165,"Assimilable",1,36,1565,0,"Medial","Word vs FW",7.41904454486766
"407",9704,"Base_SNL_1209","SNL",1,29,"left","female","1","24","Word vs Med FW","padoti.wav","padati.wav",NA,4,-0.92133218787024,"Assimilable",1,50,1530,1,"Medial","Word vs FW",21.4190445448677
"408",9705,"Base_SNL_1210","SNL",2,32,"right","female","1","24","Word vs Med FW","padoti.wav","padati.wav",NA,4,-0.92133218787024,"Assimilable",1,14,1463,1,"Medial","Word vs FW",-14.5809554551323
"409",9706,"Base_SNL_1210","SNL",2,32,"right","female","5","20","Word vs Med FW","papiti.wav","padoti.wav",NA,4,0.78743659067127,"Assimilable",5,25,1397,1,"Medial","Word vs FW",-3.58095545513234
"410",9707,"Base_SNL_1210","SNL",2,32,"right","female","1","22","Word vs Med FW","bidaku.wav","bipiku.wav",NA,2,2.10086601072187,"Assimilable",1,33,1672,1,"Medial","Word vs FW",4.41904454486766
"411",9708,"Base_SNL_1210","SNL",2,32,"right","female","5","17","Word vs Med FW","gopibu.wav","golabu.wav",NA,1,-0.00103410482854406,"Assimilable",5,38,1757,1,"Medial","Word vs FW",9.41904454486766
"412",9709,"Base_SNL_1210","SNL",2,32,"right","female","5","19","Word vs Med FW","tularo.wav","tupiro.wav",NA,3,-0.00103410482854406,"Assimilable",1,39,1331,0,"Medial","Word vs FW",10.4190445448677
"413",9710,"Base_SNL_1210","SNL",2,32,"right","female","1","21","Word vs Med FW","golabu.wav","godabu.wav",NA,1,-1.52252388653165,"Assimilable",1,49,1470,1,"Medial","Word vs FW",20.4190445448677
"414",9711,"Base_SNL_1210","SNL",2,32,"right","female","5","18","Word vs Med FW","bilaku.wav","bidaku.wav",NA,2,-1.52252388653165,"Assimilable",5,53,1335,1,"Medial","Word vs FW",24.4190445448677
"415",9712,"Base_SNL_1210","SNL",2,32,"right","female","1","23","Word vs Med FW","tupiro.wav","tudoro.wav",NA,3,0.78743659067127,"Assimilable",1,55,1406,1,"Medial","Word vs FW",26.4190445448677
"416",9713,"Base_SNL_1212","SNL",2,18,"right","female","1","22","Word vs Med FW","bidaku.wav","bipiku.wav",NA,2,2.10086601072187,"Assimilable",1,13,1329,1,"Medial","Word vs FW",-15.5809554551323
"417",9714,"Base_SNL_1212","SNL",2,18,"right","female","1","21","Word vs Med FW","golabu.wav","godabu.wav",NA,1,-1.52252388653165,"Assimilable",5,15,1562,0,"Medial","Word vs FW",-13.5809554551323
"418",9715,"Base_SNL_1212","SNL",2,18,"right","female","5","20","Word vs Med FW","papiti.wav","padoti.wav",NA,4,0.78743659067127,"Assimilable",5,29,1362,1,"Medial","Word vs FW",0.419044544867656
"419",9716,"Base_SNL_1212","SNL",2,18,"right","female","5","17","Word vs Med FW","gopibu.wav","golabu.wav",NA,1,-0.00103410482854406,"Assimilable",1,44,3232,0,"Medial","Word vs FW",15.4190445448677
"420",9717,"Base_SNL_1212","SNL",2,18,"right","female","5","18","Word vs Med FW","bilaku.wav","bidaku.wav",NA,2,-1.52252388653165,"Assimilable",5,45,2087,1,"Medial","Word vs FW",16.4190445448677
"421",9718,"Base_SNL_1212","SNL",2,18,"right","female","5","19","Word vs Med FW","tularo.wav","tupiro.wav",NA,3,-0.00103410482854406,"Assimilable",5,46,1414,1,"Medial","Word vs FW",17.4190445448677
"422",9719,"Base_SNL_1212","SNL",2,18,"right","female","1","24","Word vs Med FW","padoti.wav","padati.wav",NA,4,-0.92133218787024,"Assimilable",1,48,1020,1,"Medial","Word vs FW",19.4190445448677
"423",9720,"Base_SNL_1212","SNL",2,18,"right","female","1","23","Word vs Med FW","tupiro.wav","tudoro.wav",NA,3,0.78743659067127,"Assimilable",1,49,1890,1,"Medial","Word vs FW",20.4190445448677
"424",9721,"Base_SNL_1213","SNL",1,18,"right","male","5","18","Word vs Med FW","bilaku.wav","bidaku.wav",NA,2,-1.52252388653165,"Assimilable",1,1,3603,0,"Medial","Word vs FW",-27.5809554551323
"425",9722,"Base_SNL_1213","SNL",1,18,"right","male","1","24","Word vs Med FW","padoti.wav","padati.wav",NA,4,-0.92133218787024,"Assimilable",1,11,1252,1,"Medial","Word vs FW",-17.5809554551323
"426",9723,"Base_SNL_1213","SNL",1,18,"right","male","5","20","Word vs Med FW","papiti.wav","padoti.wav",NA,4,0.78743659067127,"Assimilable",1,12,1954,0,"Medial","Word vs FW",-16.5809554551323
"427",9724,"Base_SNL_1213","SNL",1,18,"right","male","5","17","Word vs Med FW","gopibu.wav","golabu.wav",NA,1,-0.00103410482854406,"Assimilable",1,16,1620,0,"Medial","Word vs FW",-12.5809554551323
"428",9725,"Base_SNL_1213","SNL",1,18,"right","male","1","23","Word vs Med FW","tupiro.wav","tudoro.wav",NA,3,0.78743659067127,"Assimilable",5,21,1098,0,"Medial","Word vs FW",-7.58095545513234
"429",9726,"Base_SNL_1213","SNL",1,18,"right","male","5","19","Word vs Med FW","tularo.wav","tupiro.wav",NA,3,-0.00103410482854406,"Assimilable",1,27,1474,0,"Medial","Word vs FW",-1.58095545513234
"430",9727,"Base_SNL_1213","SNL",1,18,"right","male","1","21","Word vs Med FW","golabu.wav","godabu.wav",NA,1,-1.52252388653165,"Assimilable",1,35,1066,1,"Medial","Word vs FW",6.41904454486766
"431",9728,"Base_SNL_1213","SNL",1,18,"right","male","1","22","Word vs Med FW","bidaku.wav","bipiku.wav",NA,2,2.10086601072187,"Assimilable",1,48,1635,1,"Medial","Word vs FW",19.4190445448677
"432",9729,"Base_SNL_1214","SNL",2,18,"left","female","1","24","Word vs Med FW","padoti.wav","padati.wav",NA,4,-0.92133218787024,"Assimilable",1,1,4078,1,"Medial","Word vs FW",-27.5809554551323
"433",9730,"Base_SNL_1214","SNL",2,18,"left","female","5","17","Word vs Med FW","gopibu.wav","golabu.wav",NA,1,-0.00103410482854406,"Assimilable",5,7,1579,1,"Medial","Word vs FW",-21.5809554551323
"434",9731,"Base_SNL_1214","SNL",2,18,"left","female","1","23","Word vs Med FW","tupiro.wav","tudoro.wav",NA,3,0.78743659067127,"Assimilable",1,9,2739,1,"Medial","Word vs FW",-19.5809554551323
"435",9732,"Base_SNL_1214","SNL",2,18,"left","female","5","19","Word vs Med FW","tularo.wav","tupiro.wav",NA,3,-0.00103410482854406,"Assimilable",5,33,1467,1,"Medial","Word vs FW",4.41904454486766
"436",9733,"Base_SNL_1214","SNL",2,18,"left","female","5","18","Word vs Med FW","bilaku.wav","bidaku.wav",NA,2,-1.52252388653165,"Assimilable",1,43,1113,0,"Medial","Word vs FW",14.4190445448677
"437",9734,"Base_SNL_1214","SNL",2,18,"left","female","5","20","Word vs Med FW","papiti.wav","padoti.wav",NA,4,0.78743659067127,"Assimilable",1,49,1204,0,"Medial","Word vs FW",20.4190445448677
"438",9735,"Base_SNL_1214","SNL",2,18,"left","female","1","21","Word vs Med FW","golabu.wav","godabu.wav",NA,1,-1.52252388653165,"Assimilable",1,51,1439,1,"Medial","Word vs FW",22.4190445448677
"439",9736,"Base_SNL_1214","SNL",2,18,"left","female","1","22","Word vs Med FW","bidaku.wav","bipiku.wav",NA,2,2.10086601072187,"Assimilable",1,53,1008,1,"Medial","Word vs FW",24.4190445448677
"440",9737,"Base_SNL_1215","SNL",1,30,"right","male","1","23","Word vs Med FW","tupiro.wav","tudoro.wav",NA,3,0.78743659067127,"Assimilable",1,3,1863,1,"Medial","Word vs FW",-25.5809554551323
"441",9738,"Base_SNL_1215","SNL",1,30,"right","male","5","18","Word vs Med FW","bilaku.wav","bidaku.wav",NA,2,-1.52252388653165,"Assimilable",1,14,1624,0,"Medial","Word vs FW",-14.5809554551323
"442",9739,"Base_SNL_1215","SNL",1,30,"right","male","1","22","Word vs Med FW","bidaku.wav","bipiku.wav",NA,2,2.10086601072187,"Assimilable",1,28,2094,1,"Medial","Word vs FW",-0.580955455132344
"443",9740,"Base_SNL_1215","SNL",1,30,"right","male","5","20","Word vs Med FW","papiti.wav","padoti.wav",NA,4,0.78743659067127,"Assimilable",1,42,1766,0,"Medial","Word vs FW",13.4190445448677
"444",9741,"Base_SNL_1215","SNL",1,30,"right","male","1","24","Word vs Med FW","padoti.wav","padati.wav",NA,4,-0.92133218787024,"Assimilable",1,44,2113,1,"Medial","Word vs FW",15.4190445448677
"445",9742,"Base_SNL_1215","SNL",1,30,"right","male","5","19","Word vs Med FW","tularo.wav","tupiro.wav",NA,3,-0.00103410482854406,"Assimilable",1,45,2048,0,"Medial","Word vs FW",16.4190445448677
"446",9743,"Base_SNL_1215","SNL",1,30,"right","male","5","17","Word vs Med FW","gopibu.wav","golabu.wav",NA,1,-0.00103410482854406,"Assimilable",5,52,1825,1,"Medial","Word vs FW",23.4190445448677
"447",9744,"Base_SNL_1215","SNL",1,30,"right","male","1","21","Word vs Med FW","golabu.wav","godabu.wav",NA,1,-1.52252388653165,"Assimilable",1,54,2888,1,"Medial","Word vs FW",25.4190445448677
"448",9745,"Base_SNL_1216","SNL",2,18,"right","female","5","18","Word vs Med FW","bilaku.wav","bidaku.wav",NA,2,-1.52252388653165,"Assimilable",5,7,2157,1,"Medial","Word vs FW",-21.5809554551323
"449",9746,"Base_SNL_1216","SNL",2,18,"right","female","1","22","Word vs Med FW","bidaku.wav","bipiku.wav",NA,2,2.10086601072187,"Assimilable",1,16,1752,1,"Medial","Word vs FW",-12.5809554551323
"450",9747,"Base_SNL_1216","SNL",2,18,"right","female","1","24","Word vs Med FW","padoti.wav","padati.wav",NA,4,-0.92133218787024,"Assimilable",5,17,1635,0,"Medial","Word vs FW",-11.5809554551323
"451",9748,"Base_SNL_1216","SNL",2,18,"right","female","5","17","Word vs Med FW","gopibu.wav","golabu.wav",NA,1,-0.00103410482854406,"Assimilable",1,21,1943,0,"Medial","Word vs FW",-7.58095545513234
"452",9749,"Base_SNL_1216","SNL",2,18,"right","female","1","21","Word vs Med FW","golabu.wav","godabu.wav",NA,1,-1.52252388653165,"Assimilable",1,22,1513,1,"Medial","Word vs FW",-6.58095545513234
"453",9750,"Base_SNL_1216","SNL",2,18,"right","female","5","20","Word vs Med FW","papiti.wav","padoti.wav",NA,4,0.78743659067127,"Assimilable",5,30,1519,1,"Medial","Word vs FW",1.41904454486766
"454",9751,"Base_SNL_1216","SNL",2,18,"right","female","5","19","Word vs Med FW","tularo.wav","tupiro.wav",NA,3,-0.00103410482854406,"Assimilable",1,47,1954,0,"Medial","Word vs FW",18.4190445448677
"455",9752,"Base_SNL_1216","SNL",2,18,"right","female","1","23","Word vs Med FW","tupiro.wav","tudoro.wav",NA,3,0.78743659067127,"Assimilable",1,55,1695,1,"Medial","Word vs FW",26.4190445448677
"456",9753,"Base_SNL_1217","SNL",1,18,"right","female","5","17","Word vs Med FW","gopibu.wav","golabu.wav",NA,1,-0.00103410482854406,"Assimilable",5,4,1071,1,"Medial","Word vs FW",-24.5809554551323
"457",9754,"Base_SNL_1217","SNL",1,18,"right","female","1","21","Word vs Med FW","golabu.wav","godabu.wav",NA,1,-1.52252388653165,"Assimilable",1,6,1876,1,"Medial","Word vs FW",-22.5809554551323
"458",9755,"Base_SNL_1217","SNL",1,18,"right","female","1","22","Word vs Med FW","bidaku.wav","bipiku.wav",NA,2,2.10086601072187,"Assimilable",1,13,882,1,"Medial","Word vs FW",-15.5809554551323
"459",9756,"Base_SNL_1217","SNL",1,18,"right","female","5","19","Word vs Med FW","tularo.wav","tupiro.wav",NA,3,-0.00103410482854406,"Assimilable",5,23,1101,1,"Medial","Word vs FW",-5.58095545513234
"460",9757,"Base_SNL_1217","SNL",1,18,"right","female","5","20","Word vs Med FW","papiti.wav","padoti.wav",NA,4,0.78743659067127,"Assimilable",1,29,1869,0,"Medial","Word vs FW",0.419044544867656
"461",9758,"Base_SNL_1217","SNL",1,18,"right","female","1","24","Word vs Med FW","padoti.wav","padati.wav",NA,4,-0.92133218787024,"Assimilable",1,47,966,1,"Medial","Word vs FW",18.4190445448677
"462",9759,"Base_SNL_1217","SNL",1,18,"right","female","1","23","Word vs Med FW","tupiro.wav","tudoro.wav",NA,3,0.78743659067127,"Assimilable",1,48,1436,1,"Medial","Word vs FW",19.4190445448677
"463",9760,"Base_SNL_1217","SNL",1,18,"right","female","5","18","Word vs Med FW","bilaku.wav","bidaku.wav",NA,2,-1.52252388653165,"Assimilable",5,52,1078,1,"Medial","Word vs FW",23.4190445448677
"464",9761,"Base_SNL_1218","SNL",2,19,"right","female","5","20","Word vs Med FW","papiti.wav","padoti.wav",NA,4,0.78743659067127,"Assimilable",5,3,1266,1,"Medial","Word vs FW",-25.5809554551323
"465",9762,"Base_SNL_1218","SNL",2,19,"right","female","5","19","Word vs Med FW","tularo.wav","tupiro.wav",NA,3,-0.00103410482854406,"Assimilable",5,4,1307,1,"Medial","Word vs FW",-24.5809554551323
"466",9763,"Base_SNL_1218","SNL",2,19,"right","female","1","22","Word vs Med FW","bidaku.wav","bipiku.wav",NA,2,2.10086601072187,"Assimilable",1,11,1520,1,"Medial","Word vs FW",-17.5809554551323
"467",9764,"Base_SNL_1218","SNL",2,19,"right","female","1","23","Word vs Med FW","tupiro.wav","tudoro.wav",NA,3,0.78743659067127,"Assimilable",1,15,1207,1,"Medial","Word vs FW",-13.5809554551323
"468",9765,"Base_SNL_1218","SNL",2,19,"right","female","1","24","Word vs Med FW","padoti.wav","padati.wav",NA,4,-0.92133218787024,"Assimilable",5,18,1319,0,"Medial","Word vs FW",-10.5809554551323
"469",9766,"Base_SNL_1218","SNL",2,19,"right","female","1","21","Word vs Med FW","golabu.wav","godabu.wav",NA,1,-1.52252388653165,"Assimilable",1,22,1118,1,"Medial","Word vs FW",-6.58095545513234
"470",9767,"Base_SNL_1218","SNL",2,19,"right","female","5","18","Word vs Med FW","bilaku.wav","bidaku.wav",NA,2,-1.52252388653165,"Assimilable",1,47,1580,0,"Medial","Word vs FW",18.4190445448677
"471",9768,"Base_SNL_1218","SNL",2,19,"right","female","5","17","Word vs Med FW","gopibu.wav","golabu.wav",NA,1,-0.00103410482854406,"Assimilable",5,54,1164,1,"Medial","Word vs FW",25.4190445448677
"472",9769,"Base_SNL_1219","SNL",1,20,"right","female","1","24","Word vs Med FW","padoti.wav","padati.wav",NA,4,-0.92133218787024,"Assimilable",1,12,1170,1,"Medial","Word vs FW",-16.5809554551323
"473",9770,"Base_SNL_1219","SNL",1,20,"right","female","5","17","Word vs Med FW","gopibu.wav","golabu.wav",NA,1,-0.00103410482854406,"Assimilable",5,16,1396,1,"Medial","Word vs FW",-12.5809554551323
"474",9771,"Base_SNL_1219","SNL",1,20,"right","female","5","20","Word vs Med FW","papiti.wav","padoti.wav",NA,4,0.78743659067127,"Assimilable",5,19,968,1,"Medial","Word vs FW",-9.58095545513234
"475",9772,"Base_SNL_1219","SNL",1,20,"right","female","1","22","Word vs Med FW","bidaku.wav","bipiku.wav",NA,2,2.10086601072187,"Assimilable",1,21,1040,1,"Medial","Word vs FW",-7.58095545513234
"476",9773,"Base_SNL_1219","SNL",1,20,"right","female","5","18","Word vs Med FW","bilaku.wav","bidaku.wav",NA,2,-1.52252388653165,"Assimilable",1,29,1199,0,"Medial","Word vs FW",0.419044544867656
"477",9774,"Base_SNL_1219","SNL",1,20,"right","female","1","23","Word vs Med FW","tupiro.wav","tudoro.wav",NA,3,0.78743659067127,"Assimilable",1,47,2345,1,"Medial","Word vs FW",18.4190445448677
"478",9775,"Base_SNL_1219","SNL",1,20,"right","female","1","21","Word vs Med FW","golabu.wav","godabu.wav",NA,1,-1.52252388653165,"Assimilable",1,48,1859,1,"Medial","Word vs FW",19.4190445448677
"479",9776,"Base_SNL_1219","SNL",1,20,"right","female","5","19","Word vs Med FW","tularo.wav","tupiro.wav",NA,3,-0.00103410482854406,"Assimilable",1,50,3915,0,"Medial","Word vs FW",21.4190445448677
"480",9777,"Base_SNL_1101","SNL",1,25,"left","female","1","32","Word vs Fin FW","padoti.wav","padoro.wav",NA,4,0.24046990939846,"Assimilable",5,12,1322,0,"Final","Word vs FW",-16.5809554551323
"481",9778,"Base_SNL_1101","SNL",1,25,"left","female","5","25","Word vs Fin FW","golati.wav","golabu.wav",NA,1,0.293597133776343,"Assimilable",5,19,1121,1,"Final","Word vs FW",-9.58095545513234
"482",9779,"Base_SNL_1101","SNL",1,25,"left","female","5","28","Word vs Fin FW","padobu.wav","padoti.wav",NA,4,0.293597133776343,"Assimilable",1,29,1597,0,"Final","Word vs FW",0.419044544867656
"483",9780,"Base_SNL_1101","SNL",1,25,"left","female","5","26","Word vs Fin FW","bidaro.wav","bidaku.wav",NA,2,0.0899786178315611,"Assimilable",1,38,2611,0,"Final","Word vs FW",9.41904454486766
"484",9781,"Base_SNL_1101","SNL",1,25,"left","female","1","29","Word vs Fin FW","golabu.wav","golaku.wav",NA,1,-1.20131652960009,"Assimilable",1,39,1259,1,"Final","Word vs FW",10.4190445448677
"485",9782,"Base_SNL_1101","SNL",1,25,"left","female","1","30","Word vs Fin FW","bidaku.wav","bidabu.wav",NA,2,-1.20131652960009,"Assimilable",5,41,2156,0,"Final","Word vs FW",12.4190445448677
"486",9783,"Base_SNL_1101","SNL",1,25,"left","female","5","27","Word vs Fin FW","tupiti.wav","tupiro.wav",NA,3,0.24046990939846,"Assimilable",5,45,1113,1,"Final","Word vs FW",16.4190445448677
"487",9784,"Base_SNL_1101","SNL",1,25,"left","female","1","31","Word vs Fin FW","tupiro.wav","tupiku.wav",NA,3,0.0899786178315611,"Assimilable",1,53,1986,1,"Final","Word vs FW",24.4190445448677
"488",9785,"Base_SNL_1102","SNL",2,22,"right","female","5","25","Word vs Fin FW","golati.wav","golabu.wav",NA,1,0.293597133776343,"Assimilable",1,3,1155,0,"Final","Word vs FW",-25.5809554551323
"489",9786,"Base_SNL_1102","SNL",2,22,"right","female","1","29","Word vs Fin FW","golabu.wav","golaku.wav",NA,1,-1.20131652960009,"Assimilable",1,5,1320,1,"Final","Word vs FW",-23.5809554551323
"490",9787,"Base_SNL_1102","SNL",2,22,"right","female","5","26","Word vs Fin FW","bidaro.wav","bidaku.wav",NA,2,0.0899786178315611,"Assimilable",1,11,1179,0,"Final","Word vs FW",-17.5809554551323
"491",9788,"Base_SNL_1102","SNL",2,22,"right","female","1","31","Word vs Fin FW","tupiro.wav","tupiku.wav",NA,3,0.0899786178315611,"Assimilable",1,34,987,1,"Final","Word vs FW",5.41904454486766
"492",9789,"Base_SNL_1102","SNL",2,22,"right","female","5","28","Word vs Fin FW","padobu.wav","padoti.wav",NA,4,0.293597133776343,"Assimilable",1,49,1084,0,"Final","Word vs FW",20.4190445448677
"493",9790,"Base_SNL_1102","SNL",2,22,"right","female","1","32","Word vs Fin FW","padoti.wav","padoro.wav",NA,4,0.24046990939846,"Assimilable",5,54,1420,0,"Final","Word vs FW",25.4190445448677
"494",9791,"Base_SNL_1102","SNL",2,22,"right","female","1","30","Word vs Fin FW","bidaku.wav","bidabu.wav",NA,2,-1.20131652960009,"Assimilable",1,55,1049,1,"Final","Word vs FW",26.4190445448677
"495",9792,"Base_SNL_1102","SNL",2,22,"right","female","5","27","Word vs Fin FW","tupiti.wav","tupiro.wav",NA,3,0.24046990939846,"Assimilable",5,56,1065,1,"Final","Word vs FW",27.4190445448677
"496",9793,"Base_SNL_1201","SNL",1,18,"right","female","5","27","Word vs Fin FW","tupiti.wav","tupiro.wav",NA,3,0.24046990939846,"Assimilable",5,8,2100,1,"Final","Word vs FW",-20.5809554551323
"497",9794,"Base_SNL_1201","SNL",1,18,"right","female","1","32","Word vs Fin FW","padoti.wav","padoro.wav",NA,4,0.24046990939846,"Assimilable",5,9,1715,0,"Final","Word vs FW",-19.5809554551323
"498",9795,"Base_SNL_1201","SNL",1,18,"right","female","5","26","Word vs Fin FW","bidaro.wav","bidaku.wav",NA,2,0.0899786178315611,"Assimilable",1,16,2082,0,"Final","Word vs FW",-12.5809554551323
"499",9796,"Base_SNL_1201","SNL",1,18,"right","female","1","29","Word vs Fin FW","golabu.wav","golaku.wav",NA,1,-1.20131652960009,"Assimilable",5,17,2828,0,"Final","Word vs FW",-11.5809554551323
"500",9798,"Base_SNL_1201","SNL",1,18,"right","female","5","28","Word vs Fin FW","padobu.wav","padoti.wav",NA,4,0.293597133776343,"Assimilable",5,27,1649,1,"Final","Word vs FW",-1.58095545513234
"501",9799,"Base_SNL_1201","SNL",1,18,"right","female","1","31","Word vs Fin FW","tupiro.wav","tupiku.wav",NA,3,0.0899786178315611,"Assimilable",1,33,1710,1,"Final","Word vs FW",4.41904454486766
"502",9800,"Base_SNL_1201","SNL",1,18,"right","female","5","25","Word vs Fin FW","golati.wav","golabu.wav",NA,1,0.293597133776343,"Assimilable",1,42,1761,0,"Final","Word vs FW",13.4190445448677
"503",9801,"Base_SNL_1202","SNL",2,22,"right","male","5","28","Word vs Fin FW","padobu.wav","padoti.wav",NA,4,0.293597133776343,"Assimilable",5,5,2703,1,"Final","Word vs FW",-23.5809554551323
"504",9802,"Base_SNL_1202","SNL",2,22,"right","male","1","32","Word vs Fin FW","padoti.wav","padoro.wav",NA,4,0.24046990939846,"Assimilable",1,7,1063,1,"Final","Word vs FW",-21.5809554551323
"505",9803,"Base_SNL_1202","SNL",2,22,"right","male","5","27","Word vs Fin FW","tupiti.wav","tupiro.wav",NA,3,0.24046990939846,"Assimilable",1,10,1166,0,"Final","Word vs FW",-18.5809554551323
"506",9804,"Base_SNL_1202","SNL",2,22,"right","male","5","26","Word vs Fin FW","bidaro.wav","bidaku.wav",NA,2,0.0899786178315611,"Assimilable",5,26,1768,1,"Final","Word vs FW",-2.58095545513234
"507",9805,"Base_SNL_1202","SNL",2,22,"right","male","1","31","Word vs Fin FW","tupiro.wav","tupiku.wav",NA,3,0.0899786178315611,"Assimilable",1,27,3275,1,"Final","Word vs FW",-1.58095545513234
"508",9806,"Base_SNL_1202","SNL",2,22,"right","male","1","29","Word vs Fin FW","golabu.wav","golaku.wav",NA,1,-1.20131652960009,"Assimilable",1,37,1672,1,"Final","Word vs FW",8.41904454486766
"509",9807,"Base_SNL_1202","SNL",2,22,"right","male","1","30","Word vs Fin FW","bidaku.wav","bidabu.wav",NA,2,-1.20131652960009,"Assimilable",1,39,1066,1,"Final","Word vs FW",10.4190445448677
"510",9808,"Base_SNL_1202","SNL",2,22,"right","male","5","25","Word vs Fin FW","golati.wav","golabu.wav",NA,1,0.293597133776343,"Assimilable",1,42,1836,0,"Final","Word vs FW",13.4190445448677
"511",9809,"Base_SNL_1203","SNL",1,20,"right","female","5","27","Word vs Fin FW","tupiti.wav","tupiro.wav",NA,3,0.24046990939846,"Assimilable",5,13,984,1,"Final","Word vs FW",-15.5809554551323
"512",9810,"Base_SNL_1203","SNL",1,20,"right","female","1","32","Word vs Fin FW","padoti.wav","padoro.wav",NA,4,0.24046990939846,"Assimilable",1,17,1116,1,"Final","Word vs FW",-11.5809554551323
"513",9811,"Base_SNL_1203","SNL",1,20,"right","female","5","28","Word vs Fin FW","padobu.wav","padoti.wav",NA,4,0.293597133776343,"Assimilable",1,23,1439,0,"Final","Word vs FW",-5.58095545513234
"514",9812,"Base_SNL_1203","SNL",1,20,"right","female","5","26","Word vs Fin FW","bidaro.wav","bidaku.wav",NA,2,0.0899786178315611,"Assimilable",5,27,1063,1,"Final","Word vs FW",-1.58095545513234
"515",9813,"Base_SNL_1203","SNL",1,20,"right","female","1","29","Word vs Fin FW","golabu.wav","golaku.wav",NA,1,-1.20131652960009,"Assimilable",5,31,1260,0,"Final","Word vs FW",2.41904454486766
"516",9814,"Base_SNL_1203","SNL",1,20,"right","female","5","25","Word vs Fin FW","golati.wav","golabu.wav",NA,1,0.293597133776343,"Assimilable",5,33,1005,1,"Final","Word vs FW",4.41904454486766
"517",9815,"Base_SNL_1203","SNL",1,20,"right","female","1","30","Word vs Fin FW","bidaku.wav","bidabu.wav",NA,2,-1.20131652960009,"Assimilable",1,36,868,1,"Final","Word vs FW",7.41904454486766
"518",9816,"Base_SNL_1203","SNL",1,20,"right","female","1","31","Word vs Fin FW","tupiro.wav","tupiku.wav",NA,3,0.0899786178315611,"Assimilable",5,43,949,0,"Final","Word vs FW",14.4190445448677
"519",9817,"Base_SNL_1204","SNL",2,21,"right","female","5","28","Word vs Fin FW","padobu.wav","padoti.wav",NA,4,0.293597133776343,"Assimilable",1,6,1105,0,"Final","Word vs FW",-22.5809554551323
"520",9818,"Base_SNL_1204","SNL",2,21,"right","female","1","32","Word vs Fin FW","padoti.wav","padoro.wav",NA,4,0.24046990939846,"Assimilable",5,7,1207,0,"Final","Word vs FW",-21.5809554551323
"521",9819,"Base_SNL_1204","SNL",2,21,"right","female","5","27","Word vs Fin FW","tupiti.wav","tupiro.wav",NA,3,0.24046990939846,"Assimilable",1,26,1526,0,"Final","Word vs FW",-2.58095545513234
"522",9820,"Base_SNL_1204","SNL",2,21,"right","female","1","29","Word vs Fin FW","golabu.wav","golaku.wav",NA,1,-1.20131652960009,"Assimilable",1,30,1152,1,"Final","Word vs FW",1.41904454486766
"523",9821,"Base_SNL_1204","SNL",2,21,"right","female","5","25","Word vs Fin FW","golati.wav","golabu.wav",NA,1,0.293597133776343,"Assimilable",5,33,1115,1,"Final","Word vs FW",4.41904454486766
"524",9822,"Base_SNL_1204","SNL",2,21,"right","female","1","30","Word vs Fin FW","bidaku.wav","bidabu.wav",NA,2,-1.20131652960009,"Assimilable",1,50,1155,1,"Final","Word vs FW",21.4190445448677
"525",9823,"Base_SNL_1204","SNL",2,21,"right","female","1","31","Word vs Fin FW","tupiro.wav","tupiku.wav",NA,3,0.0899786178315611,"Assimilable",1,52,1013,1,"Final","Word vs FW",23.4190445448677
"526",9824,"Base_SNL_1204","SNL",2,21,"right","female","5","26","Word vs Fin FW","bidaro.wav","bidaku.wav",NA,2,0.0899786178315611,"Assimilable",1,56,1344,0,"Final","Word vs FW",27.4190445448677
"527",9825,"Base_SNL_1205","SNL",1,18,"right","female","1","29","Word vs Fin FW","golabu.wav","golaku.wav",NA,1,-1.20131652960009,"Assimilable",5,3,3264,0,"Final","Word vs FW",-25.5809554551323
"528",9826,"Base_SNL_1205","SNL",1,18,"right","female","1","30","Word vs Fin FW","bidaku.wav","bidabu.wav",NA,2,-1.20131652960009,"Assimilable",1,12,2562,1,"Final","Word vs FW",-16.5809554551323
"529",9827,"Base_SNL_1205","SNL",1,18,"right","female","1","32","Word vs Fin FW","padoti.wav","padoro.wav",NA,4,0.24046990939846,"Assimilable",1,25,1433,1,"Final","Word vs FW",-3.58095545513234
"530",9828,"Base_SNL_1205","SNL",1,18,"right","female","5","26","Word vs Fin FW","bidaro.wav","bidaku.wav",NA,2,0.0899786178315611,"Assimilable",1,27,1344,0,"Final","Word vs FW",-1.58095545513234
"531",9829,"Base_SNL_1205","SNL",1,18,"right","female","5","27","Word vs Fin FW","tupiti.wav","tupiro.wav",NA,3,0.24046990939846,"Assimilable",1,32,2144,0,"Final","Word vs FW",3.41904454486766
"532",9830,"Base_SNL_1205","SNL",1,18,"right","female","5","28","Word vs Fin FW","padobu.wav","padoti.wav",NA,4,0.293597133776343,"Assimilable",1,36,1489,0,"Final","Word vs FW",7.41904454486766
"533",9831,"Base_SNL_1205","SNL",1,18,"right","female","1","31","Word vs Fin FW","tupiro.wav","tupiku.wav",NA,3,0.0899786178315611,"Assimilable",1,48,1470,1,"Final","Word vs FW",19.4190445448677
"534",9832,"Base_SNL_1205","SNL",1,18,"right","female","5","25","Word vs Fin FW","golati.wav","golabu.wav",NA,1,0.293597133776343,"Assimilable",1,54,1315,0,"Final","Word vs FW",25.4190445448677
